Time,Header.seq,Header.stamp.secs,Header.stamp.nsecs,Header.frame_id,IMU.header.seq,IMU.header.stamp.secs,IMU.header.stamp.nsecs,IMU.header.frame_id,IMU.orientation.x,IMU.orientation.y,IMU.orientation.z,IMU.orientation.w,IMU.orientation_covariance,IMU.angular_velocity.x,IMU.angular_velocity.y,IMU.angular_velocity.z,IMU.angular_velocity_covariance,IMU.linear_acceleration.x,IMU.linear_acceleration.y,IMU.linear_acceleration.z,IMU.linear_acceleration_covariance,MagField.header.seq,MagField.header.stamp.secs,MagField.header.stamp.nsecs,MagField.header.frame_id,MagField.magnetic_field.x,MagField.magnetic_field.y,MagField.magnetic_field.z,MagField.magnetic_field_covariance,roll,pitch,yaw,string
1667362681.9389699,0,1667362681,938609361,IMU1_Frame,0,0,0,,-0.0656450670396197,0.06453073557880619,0.6101954947602246,0.7868849773082127,"(0.0, 0.0, 0.0, 0.0, 0.0, 0.0, 0.0, 0.0, 0.0)",0.007898,0.001747,-0.031624,"(0.0, 0.0, 0.0, 0.0, 0.0, 0.0, 0.0, 0.0, 0.0)",1.947,-0.024,-9.372,"(0.0, 0.0, 0.0, 0.0, 0.0, 0.0, 0.0, 0.0, 0.0)",0,0,0,,0.0235,-0.2077,0.3372,"(0.0, 0.0, 0.0, 0.0, 0.0, 0.0, 0.0, 0.0, 0.0)",-1.431,10.467,75.453,"$VNYMR,+075.453,+010.467,-001.431,+00.0235,-00.2077,+00.3372,+01.947,-00.024,-09.372,+00.007898,+00.001747,-00.031624*63
"
1667362681.964847,0,1667362681,964480876,IMU1_Frame,0,0,0,,-0.065587969452716,0.06459441035466998,0.6097670044818421,0.7872166033940361,"(0.0, 0.0, 0.0, 0.0, 0.0, 0.0, 0.0, 0.0, 0.0)",0.013506,-0.001284,-0.031465,"(0.0, 0.0, 0.0, 0.0, 0.0, 0.0, 0.0, 0.0, 0.0)",2.077,0.334,-9.732,"(0.0, 0.0, 0.0, 0.0, 0.0, 0.0, 0.0, 0.0, 0.0)",0,0,0,,0.0215,-0.2077,0.3249,"(0.0, 0.0, 0.0, 0.0, 0.0, 0.0, 0.0, 0.0, 0.0)",-1.427,10.468,75.391,"$VNYMR,+075.391,+010.468,-001.427,+00.0215,-00.2077,+00.3249,+02.077,+00.334,-09.732,+00.013506,-00.001284,-00.031465*60
"
1667362681.9901328,0,1667362681,989389419,IMU1_Frame,0,0,0,,-0.06555845541452177,0.0646561969991532,0.6094617948510864,0.7874503068322222,"(0.0, 0.0, 0.0, 0.0, 0.0, 0.0, 0.0, 0.0, 0.0)",0.005272,0.003622,-0.028423,"(0.0, 0.0, 0.0, 0.0, 0.0, 0.0, 0.0, 0.0, 0.0)",1.806,0.139,-9.46,"(0.0, 0.0, 0.0, 0.0, 0.0, 0.0, 0.0, 0.0, 0.0)",0,0,0,,0.0274,-0.1979,0.3539,"(0.0, 0.0, 0.0, 0.0, 0.0, 0.0, 0.0, 0.0, 0.0)",-1.424,10.471,75.347,"$VNYMR,+075.347,+010.471,-001.424,+00.0274,-00.1979,+00.3539,+01.806,+00.139,-09.460,+00.005272,+00.003622,-00.028423*60
"
1667362682.0146933,0,1667362682,14312505,IMU1_Frame,0,0,0,,-0.06551955323842303,0.06471354156273713,0.6091906988556108,0.7876585796585078,"(0.0, 0.0, 0.0, 0.0, 0.0, 0.0, 0.0, 0.0, 0.0)",0.006258,0.00498,-0.029887,"(0.0, 0.0, 0.0, 0.0, 0.0, 0.0, 0.0, 0.0, 0.0)",1.901,-0.034,-9.548,"(0.0, 0.0, 0.0, 0.0, 0.0, 0.0, 0.0, 0.0, 0.0)",0,0,0,,0.0262,-0.2128,0.3296,"(0.0, 0.0, 0.0, 0.0, 0.0, 0.0, 0.0, 0.0, 0.0)",-1.42,10.473,75.308,"$VNYMR,+075.308,+010.473,-001.420,+00.0262,-00.2128,+00.3296,+01.901,-00.034,-09.548,+00.006258,+00.004980,-00.029887*68
"
1667362682.039687,0,1667362682,39254426,IMU1_Frame,0,0,0,,-0.06549603953403749,0.06479364621135586,0.6088295066636115,0.787933172313323,"(0.0, 0.0, 0.0, 0.0, 0.0, 0.0, 0.0, 0.0, 0.0)",0.006612,0.001089,-0.031978,"(0.0, 0.0, 0.0, 0.0, 0.0, 0.0, 0.0, 0.0, 0.0)",2.485,0.425,-10.03,"(0.0, 0.0, 0.0, 0.0, 0.0, 0.0, 0.0, 0.0, 0.0)",0,0,0,,0.0225,-0.2087,0.3405,"(0.0, 0.0, 0.0, 0.0, 0.0, 0.0, 0.0, 0.0, 0.0)",-1.417,10.478,75.256,"$VNYMR,+075.256,+010.478,-001.417,+00.0225,-00.2087,+00.3405,+02.485,+00.425,-10.030,+00.006612,+00.001089,-00.031978*63
"
1667362682.0645356,0,1667362682,64190149,IMU1_Frame,0,0,0,,-0.06548633773957388,0.06487360868152157,0.6084889870085701,0.7881904003192245,"(0.0, 0.0, 0.0, 0.0, 0.0, 0.0, 0.0, 0.0, 0.0)",0.00633,0.002254,-0.03465,"(0.0, 0.0, 0.0, 0.0, 0.0, 0.0, 0.0, 0.0, 0.0)",2.023,0.102,-9.388,"(0.0, 0.0, 0.0, 0.0, 0.0, 0.0, 0.0, 0.0, 0.0)",0,0,0,,0.0312,-0.197,0.3551,"(0.0, 0.0, 0.0, 0.0, 0.0, 0.0, 0.0, 0.0, 0.0)",-1.415,10.484,75.207,"$VNYMR,+075.207,+010.484,-001.415,+00.0312,-00.1970,+00.3551,+02.023,+00.102,-09.388,+00.006330,+00.002254,-00.034650*65
"
1667362682.0894773,0,1667362682,89048147,IMU1_Frame,0,0,0,,-0.06548398449133186,0.06499175852416074,0.6081456145946208,0.7884458323489365,"(0.0, 0.0, 0.0, 0.0, 0.0, 0.0, 0.0, 0.0, 0.0)",0.01257,0.011573,-0.036175,"(0.0, 0.0, 0.0, 0.0, 0.0, 0.0, 0.0, 0.0, 0.0)",1.748,-0.001,-9.111,"(0.0, 0.0, 0.0, 0.0, 0.0, 0.0, 0.0, 0.0, 0.0)",0,0,0,,0.028,-0.2139,0.3242,"(0.0, 0.0, 0.0, 0.0, 0.0, 0.0, 0.0, 0.0, 0.0)",-1.411,10.494,75.158,"$VNYMR,+075.158,+010.494,-001.411,+00.0280,-00.2139,+00.3242,+01.748,-00.001,-09.111,+00.012570,+00.011573,-00.036175*6A
"
1667362682.1304243,0,1667362682,114023447,IMU1_Frame,0,0,0,,-0.06547778529167254,0.06513488620659014,0.6077933007428624,0.78870616189063,"(0.0, 0.0, 0.0, 0.0, 0.0, 0.0, 0.0, 0.0, 0.0)",0.011715,0.01164,-0.035144,"(0.0, 0.0, 0.0, 0.0, 0.0, 0.0, 0.0, 0.0, 0.0)",2.769,0.129,-9.87,"(0.0, 0.0, 0.0, 0.0, 0.0, 0.0, 0.0, 0.0, 0.0)",0,0,0,,0.0262,-0.2118,0.3274,"(0.0, 0.0, 0.0, 0.0, 0.0, 0.0, 0.0, 0.0, 0.0)",-1.405,10.506,75.108,"$VNYMR,+075.108,+010.506,-001.405,+00.0262,-00.2118,+00.3274,+02.769,+00.129,-09.870,+00.011715,+00.011640,-00.035144*69
"
1667362682.1737053,0,1667362682,138924837,IMU1_Frame,0,0,0,,-0.06550467588619756,0.06529672020658699,0.6074197303211195,0.788978293100593,"(0.0, 0.0, 0.0, 0.0, 0.0, 0.0, 0.0, 0.0, 0.0)",0.010588,0.012532,-0.035797,"(0.0, 0.0, 0.0, 0.0, 0.0, 0.0, 0.0, 0.0, 0.0)",3.372,0.218,-10.218,"(0.0, 0.0, 0.0, 0.0, 0.0, 0.0, 0.0, 0.0, 0.0)",0,0,0,,0.0263,-0.2098,0.344,"(0.0, 0.0, 0.0, 0.0, 0.0, 0.0, 0.0, 0.0, 0.0)",-1.401,10.522,75.055,"$VNYMR,+075.055,+010.522,-001.401,+00.0263,-00.2098,+00.3440,+03.372,+00.218,-10.218,+00.010588,+00.012532,-00.035797*63
"
1667362682.1737497,0,1667362682,163857460,IMU1_Frame,0,0,0,,-0.06558185392756792,0.0655739361974944,0.607004206210721,0.7892686316897958,"(0.0, 0.0, 0.0, 0.0, 0.0, 0.0, 0.0, 0.0, 0.0)",0.006604,0.011246,-0.03675,"(0.0, 0.0, 0.0, 0.0, 0.0, 0.0, 0.0, 0.0, 0.0)",2.592,0.068,-9.431,"(0.0, 0.0, 0.0, 0.0, 0.0, 0.0, 0.0, 0.0, 0.0)",0,0,0,,0.0301,-0.2119,0.3486,"(0.0, 0.0, 0.0, 0.0, 0.0, 0.0, 0.0, 0.0, 0.0)",-1.394,10.552,74.997,"$VNYMR,+074.997,+010.552,-001.394,+00.0301,-00.2119,+00.3486,+02.592,+00.068,-09.431,+00.006604,+00.011246,-00.036750*68
"
1667362682.2170935,0,1667362682,188790082,IMU1_Frame,0,0,0,,-0.06569535091798924,0.06592266567671183,0.6065360110973461,0.7895900140325729,"(0.0, 0.0, 0.0, 0.0, 0.0, 0.0, 0.0, 0.0, 0.0)",0.011958,0.010515,-0.043064,"(0.0, 0.0, 0.0, 0.0, 0.0, 0.0, 0.0, 0.0, 0.0)",2.123,-0.202,-9.011,"(0.0, 0.0, 0.0, 0.0, 0.0, 0.0, 0.0, 0.0, 0.0)",0,0,0,,0.0309,-0.2139,0.3387,"(0.0, 0.0, 0.0, 0.0, 0.0, 0.0, 0.0, 0.0, 0.0)",-1.386,10.591,74.932,"$VNYMR,+074.932,+010.591,-001.386,+00.0309,-00.2139,+00.3387,+02.123,-00.202,-09.011,+00.011958,+00.010515,-00.043064*65
"
1667362682.217134,0,1667362682,213723659,IMU1_Frame,0,0,0,,-0.06577028534616726,0.06621387471187291,0.6060369119110988,0.7899425635844566,"(0.0, 0.0, 0.0, 0.0, 0.0, 0.0, 0.0, 0.0, 0.0)",0.017336,0.024095,-0.04972,"(0.0, 0.0, 0.0, 0.0, 0.0, 0.0, 0.0, 0.0, 0.0)",2.122,-0.263,-9.1,"(0.0, 0.0, 0.0, 0.0, 0.0, 0.0, 0.0, 0.0, 0.0)",0,0,0,,0.0272,-0.2118,0.333,"(0.0, 0.0, 0.0, 0.0, 0.0, 0.0, 0.0, 0.0, 0.0)",-1.379,10.622,74.862,"$VNYMR,+074.862,+010.622,-001.379,+00.0272,-00.2118,+00.3330,+02.122,-00.263,-09.100,+00.017336,+00.024095,-00.049720*6C
"
1667362682.2604136,0,1667362682,239404439,IMU1_Frame,0,0,0,,-0.06583977542891561,0.06652083332400623,0.6054951652575751,0.790326329787292,"(0.0, 0.0, 0.0, 0.0, 0.0, 0.0, 0.0, 0.0, 0.0)",0.018072,0.029862,-0.052284,"(0.0, 0.0, 0.0, 0.0, 0.0, 0.0, 0.0, 0.0, 0.0)",2.058,-0.144,-9.084,"(0.0, 0.0, 0.0, 0.0, 0.0, 0.0, 0.0, 0.0, 0.0)",0,0,0,,0.0309,-0.2119,0.3342,"(0.0, 0.0, 0.0, 0.0, 0.0, 0.0, 0.0, 0.0, 0.0)",-1.371,10.654,74.786,"$VNYMR,+074.786,+010.654,-001.371,+00.0309,-00.2119,+00.3342,+02.058,-00.144,-09.084,+00.018072,+00.029862,-00.052284*6E
"
1667362682.2651513,0,1667362682,264725923,IMU1_Frame,0,0,0,,-0.06592995253237299,0.06686764391001661,0.6048889364377669,0.79075364945866,"(0.0, 0.0, 0.0, 0.0, 0.0, 0.0, 0.0, 0.0, 0.0)",0.018643,0.031174,-0.061024,"(0.0, 0.0, 0.0, 0.0, 0.0, 0.0, 0.0, 0.0, 0.0)",1.948,-0.164,-9.364,"(0.0, 0.0, 0.0, 0.0, 0.0, 0.0, 0.0, 0.0, 0.0)",0,0,0,,0.0282,-0.2079,0.3485,"(0.0, 0.0, 0.0, 0.0, 0.0, 0.0, 0.0, 0.0, 0.0)",-1.363,10.691,74.701,"$VNYMR,+074.701,+010.691,-001.363,+00.0282,-00.2079,+00.3485,+01.948,-00.164,-09.364,+00.018643,+00.031174,-00.061024*6D
"
1667362682.307098,0,1667362682,289323091,IMU1_Frame,0,0,0,,-0.06601468412137695,0.06726328442492294,0.6042167524385403,0.7912267867819884,"(0.0, 0.0, 0.0, 0.0, 0.0, 0.0, 0.0, 0.0, 0.0)",0.022542,0.026293,-0.066448,"(0.0, 0.0, 0.0, 0.0, 0.0, 0.0, 0.0, 0.0, 0.0)",2.083,-0.278,-9.167,"(0.0, 0.0, 0.0, 0.0, 0.0, 0.0, 0.0, 0.0, 0.0)",0,0,0,,0.031,-0.2089,0.3442,"(0.0, 0.0, 0.0, 0.0, 0.0, 0.0, 0.0, 0.0, 0.0)",-1.352,10.732,74.607,"$VNYMR,+074.607,+010.732,-001.352,+00.0310,-00.2089,+00.3442,+02.083,-00.278,-09.167,+00.022542,+00.026293,-00.066448*62
"
1667362682.3507705,0,1667362682,314783811,IMU1_Frame,0,0,0,,-0.06611390698162181,0.0676925479219147,0.6034733108294463,0.791749097489862,"(0.0, 0.0, 0.0, 0.0, 0.0, 0.0, 0.0, 0.0, 0.0)",0.019611,0.032515,-0.071802,"(0.0, 0.0, 0.0, 0.0, 0.0, 0.0, 0.0, 0.0, 0.0)",2.365,-0.541,-9.133,"(0.0, 0.0, 0.0, 0.0, 0.0, 0.0, 0.0, 0.0, 0.0)",0,0,0,,0.0234,-0.2117,0.3428,"(0.0, 0.0, 0.0, 0.0, 0.0, 0.0, 0.0, 0.0, 0.0)",-1.341,10.777,74.503,"$VNYMR,+074.503,+010.777,-001.341,+00.0234,-00.2117,+00.3428,+02.365,-00.541,-09.133,+00.019611,+00.032515,-00.071802*69
"
1667362682.350783,0,1667362682,339108943,IMU1_Frame,0,0,0,,-0.06623743873862722,0.06818039393074571,0.6026704321253726,0.7923082643987828,"(0.0, 0.0, 0.0, 0.0, 0.0, 0.0, 0.0, 0.0, 0.0)",0.025046,0.032706,-0.076223,"(0.0, 0.0, 0.0, 0.0, 0.0, 0.0, 0.0, 0.0, 0.0)",3.295,-0.539,-9.206,"(0.0, 0.0, 0.0, 0.0, 0.0, 0.0, 0.0, 0.0, 0.0)",0,0,0,,0.031,-0.209,0.3398,"(0.0, 0.0, 0.0, 0.0, 0.0, 0.0, 0.0, 0.0, 0.0)",-1.329,10.829,74.391,"$VNYMR,+074.391,+010.829,-001.329,+00.0310,-00.2090,+00.3398,+03.295,-00.539,-09.206,+00.025046,+00.032706,-00.076223*6B
"
1667362682.3937454,0,1667362682,364100933,IMU1_Frame,0,0,0,,-0.06638886559429645,0.06869153772882046,0.601797157107881,0.7929149846398572,"(0.0, 0.0, 0.0, 0.0, 0.0, 0.0, 0.0, 0.0, 0.0)",0.018885,0.051098,-0.083014,"(0.0, 0.0, 0.0, 0.0, 0.0, 0.0, 0.0, 0.0, 0.0)",4.477,-0.014,-9.763,"(0.0, 0.0, 0.0, 0.0, 0.0, 0.0, 0.0, 0.0, 0.0)",0,0,0,,0.0281,-0.2109,0.3352,"(0.0, 0.0, 0.0, 0.0, 0.0, 0.0, 0.0, 0.0, 0.0)",-1.319,10.885,74.269,"$VNYMR,+074.269,+010.885,-001.319,+00.0281,-00.2109,+00.3352,+04.477,-00.014,-09.763,+00.018885,+00.051098,-00.083014*67
"
1667362682.393788,0,1667362682,388999938,IMU1_Frame,0,0,0,,-0.06646068435887252,0.06917724620385786,0.6008201426756576,0.7936073602212895,"(0.0, 0.0, 0.0, 0.0, 0.0, 0.0, 0.0, 0.0, 0.0)",0.025624,0.039385,-0.09855,"(0.0, 0.0, 0.0, 0.0, 0.0, 0.0, 0.0, 0.0, 0.0)",4.407,0.067,-9.424,"(0.0, 0.0, 0.0, 0.0, 0.0, 0.0, 0.0, 0.0, 0.0)",0,0,0,,0.0301,-0.2109,0.3453,"(0.0, 0.0, 0.0, 0.0, 0.0, 0.0, 0.0, 0.0, 0.0)",-1.305,10.933,74.132,"$VNYMR,+074.132,+010.933,-001.305,+00.0301,-00.2109,+00.3453,+04.407,+00.067,-09.424,+00.025624,+00.039385,-00.098550*64
"
1667362682.437064,0,1667362682,413930416,IMU1_Frame,0,0,0,,-0.06648364912614849,0.0696899787779251,0.599749407062875,0.7943701152388181,"(0.0, 0.0, 0.0, 0.0, 0.0, 0.0, 0.0, 0.0, 0.0)",0.047149,0.012579,-0.111876,"(0.0, 0.0, 0.0, 0.0, 0.0, 0.0, 0.0, 0.0, 0.0)",3.785,-0.368,-8.918,"(0.0, 0.0, 0.0, 0.0, 0.0, 0.0, 0.0, 0.0, 0.0)",0,0,0,,0.0281,-0.2119,0.3408,"(0.0, 0.0, 0.0, 0.0, 0.0, 0.0, 0.0, 0.0, 0.0)",-1.286,10.98,73.982,"$VNYMR,+073.982,+010.980,-001.286,+00.0281,-00.2119,+00.3408,+03.785,-00.368,-08.918,+00.047149,+00.012579,-00.111876*6E
"
1667362682.439197,0,1667362682,438823461,IMU1_Frame,0,0,0,,-0.06658490730542882,0.07022017736247242,0.5986163295994283,0.795169206362532,"(0.0, 0.0, 0.0, 0.0, 0.0, 0.0, 0.0, 0.0, 0.0)",0.026029,0.032653,-0.109671,"(0.0, 0.0, 0.0, 0.0, 0.0, 0.0, 0.0, 0.0, 0.0)",3.871,-0.711,-9.144,"(0.0, 0.0, 0.0, 0.0, 0.0, 0.0, 0.0, 0.0, 0.0)",0,0,0,,0.0311,-0.203,0.3419,"(0.0, 0.0, 0.0, 0.0, 0.0, 0.0, 0.0, 0.0, 0.0)",-1.274,11.034,73.823,"$VNYMR,+073.823,+011.034,-001.274,+00.0311,-00.2030,+00.3419,+03.871,-00.711,-09.144,+00.026029,+00.032653,-00.109671*6B
"
1667362682.4803865,0,1667362682,463772296,IMU1_Frame,0,0,0,,-0.06667725381587951,0.07079079743478864,0.5973752527155358,0.796043726352497,"(0.0, 0.0, 0.0, 0.0, 0.0, 0.0, 0.0, 0.0, 0.0)",0.033685,0.044143,-0.119799,"(0.0, 0.0, 0.0, 0.0, 0.0, 0.0, 0.0, 0.0, 0.0)",4.584,-0.453,-9.214,"(0.0, 0.0, 0.0, 0.0, 0.0, 0.0, 0.0, 0.0, 0.0)",0,0,0,,0.0272,-0.2118,0.3418,"(0.0, 0.0, 0.0, 0.0, 0.0, 0.0, 0.0, 0.0, 0.0)",-1.26,11.091,73.649,"$VNYMR,+073.649,+011.091,-001.260,+00.0272,-00.2118,+00.3418,+04.584,-00.453,-09.214,+00.033685,+00.044143,-00.119799*6B
"
1667362682.5236979,0,1667362682,488703966,IMU1_Frame,0,0,0,,-0.06672047785932382,0.07137744658417901,0.5960266968232417,0.7969980016457516,"(0.0, 0.0, 0.0, 0.0, 0.0, 0.0, 0.0, 0.0, 0.0)",0.039135,0.047016,-0.13313,"(0.0, 0.0, 0.0, 0.0, 0.0, 0.0, 0.0, 0.0, 0.0)",4.41,-0.391,-9.286,"(0.0, 0.0, 0.0, 0.0, 0.0, 0.0, 0.0, 0.0, 0.0)",0,0,0,,0.0301,-0.2089,0.3386,"(0.0, 0.0, 0.0, 0.0, 0.0, 0.0, 0.0, 0.0, 0.0)",-1.242,11.146,73.46,"$VNYMR,+073.460,+011.146,-001.242,+00.0301,-00.2089,+00.3386,+04.410,-00.391,-09.286,+00.039135,+00.047016,-00.133130*62
"
1667362682.5237255,0,1667362682,514526367,IMU1_Frame,0,0,0,,-0.06676674025186456,0.07192971503560121,0.5945965935956691,0.7980120358587731,"(0.0, 0.0, 0.0, 0.0, 0.0, 0.0, 0.0, 0.0, 0.0)",0.034443,0.0346,-0.142875,"(0.0, 0.0, 0.0, 0.0, 0.0, 0.0, 0.0, 0.0, 0.0)",4.011,-0.768,-9.105,"(0.0, 0.0, 0.0, 0.0, 0.0, 0.0, 0.0, 0.0, 0.0)",0,0,0,,0.0283,-0.2019,0.3429,"(0.0, 0.0, 0.0, 0.0, 0.0, 0.0, 0.0, 0.0, 0.0)",-1.228,11.198,73.259,"$VNYMR,+073.259,+011.198,-001.228,+00.0283,-00.2019,+00.3429,+04.011,-00.768,-09.105,+00.034443,+00.034600,-00.142875*6C
"
1667362682.5672562,0,1667362682,539359331,IMU1_Frame,0,0,0,,-0.06678168078813004,0.07245215636984621,0.5930488102013269,0.7991145104847378,"(0.0, 0.0, 0.0, 0.0, 0.0, 0.0, 0.0, 0.0, 0.0)",0.03906,0.036861,-0.151936,"(0.0, 0.0, 0.0, 0.0, 0.0, 0.0, 0.0, 0.0, 0.0)",4.452,-0.378,-9.105,"(0.0, 0.0, 0.0, 0.0, 0.0, 0.0, 0.0, 0.0, 0.0)",0,0,0,,0.032,-0.206,0.3475,"(0.0, 0.0, 0.0, 0.0, 0.0, 0.0, 0.0, 0.0, 0.0)",-1.215,11.245,73.041,"$VNYMR,+073.041,+011.245,-001.215,+00.0320,-00.2060,+00.3475,+04.452,-00.378,-09.105,+00.039060,+00.036861,-00.151936*64
"
1667362682.5672805,0,1667362682,564363002,IMU1_Frame,0,0,0,,-0.06674782118733895,0.07290337086042996,0.5913996816592255,0.800297596783407,"(0.0, 0.0, 0.0, 0.0, 0.0, 0.0, 0.0, 0.0, 0.0)",0.037154,0.028789,-0.16093,"(0.0, 0.0, 0.0, 0.0, 0.0, 0.0, 0.0, 0.0, 0.0)",4.3,-0.591,-9.049,"(0.0, 0.0, 0.0, 0.0, 0.0, 0.0, 0.0, 0.0, 0.0)",0,0,0,,0.0273,-0.2039,0.3373,"(0.0, 0.0, 0.0, 0.0, 0.0, 0.0, 0.0, 0.0, 0.0)",-1.204,11.282,72.808,"$VNYMR,+072.808,+011.282,-001.204,+00.0273,-00.2039,+00.3373,+04.300,-00.591,-09.049,+00.037154,+00.028789,-00.160930*63
"
1667362682.6103916,0,1667362682,589193105,IMU1_Frame,0,0,0,,-0.06663782989059787,0.07322777239757428,0.589666477386626,0.801555075103145,"(0.0, 0.0, 0.0, 0.0, 0.0, 0.0, 0.0, 0.0, 0.0)",0.034632,0.00969,-0.170593,"(0.0, 0.0, 0.0, 0.0, 0.0, 0.0, 0.0, 0.0, 0.0)",3.855,-0.761,-9.2,"(0.0, 0.0, 0.0, 0.0, 0.0, 0.0, 0.0, 0.0, 0.0)",0,0,0,,0.0301,-0.2119,0.3486,"(0.0, 0.0, 0.0, 0.0, 0.0, 0.0, 0.0, 0.0, 0.0)",-1.196,11.302,72.562,"$VNYMR,+072.562,+011.302,-001.196,+00.0301,-00.2119,+00.3486,+03.855,-00.761,-09.200,+00.034632,+00.009690,-00.170593*6D
"
1667362682.6151295,0,1667362682,614583730,IMU1_Frame,0,0,0,,-0.06654003504809214,0.07353320465643089,0.5878284690634268,0.8028841650619983,"(0.0, 0.0, 0.0, 0.0, 0.0, 0.0, 0.0, 0.0, 0.0)",0.036089,0.020432,-0.17965,"(0.0, 0.0, 0.0, 0.0, 0.0, 0.0, 0.0, 0.0, 0.0)",4.172,-0.494,-9.317,"(0.0, 0.0, 0.0, 0.0, 0.0, 0.0, 0.0, 0.0, 0.0)",0,0,0,,0.0291,-0.2069,0.3397,"(0.0, 0.0, 0.0, 0.0, 0.0, 0.0, 0.0, 0.0, 0.0)",-1.192,11.321,72.301,"$VNYMR,+072.301,+011.321,-001.192,+00.0291,-00.2069,+00.3397,+04.172,-00.494,-09.317,+00.036089,+00.020432,-00.179650*67
"
1667362682.657099,0,1667362682,639078140,IMU1_Frame,0,0,0,,-0.06637352498033983,0.07378208458828117,0.5858858582481192,0.804293802214313,"(0.0, 0.0, 0.0, 0.0, 0.0, 0.0, 0.0, 0.0, 0.0)",0.041952,0.010058,-0.194137,"(0.0, 0.0, 0.0, 0.0, 0.0, 0.0, 0.0, 0.0, 0.0)",4.123,-0.404,-9.31,"(0.0, 0.0, 0.0, 0.0, 0.0, 0.0, 0.0, 0.0, 0.0)",0,0,0,,0.0292,-0.2069,0.3463,"(0.0, 0.0, 0.0, 0.0, 0.0, 0.0, 0.0, 0.0, 0.0)",-1.187,11.33,72.025,"$VNYMR,+072.025,+011.330,-001.187,+00.0292,-00.2069,+00.3463,+04.123,-00.404,-09.310,+00.041952,+00.010058,-00.194137*62
"
1667362682.700552,0,1667362682,664016485,IMU1_Frame,0,0,0,,-0.06607822399029087,0.07393172056175631,0.5838536472017744,0.8057807938008037,"(0.0, 0.0, 0.0, 0.0, 0.0, 0.0, 0.0, 0.0, 0.0)",0.051882,-0.006699,-0.204954,"(0.0, 0.0, 0.0, 0.0, 0.0, 0.0, 0.0, 0.0, 0.0)",3.538,-0.704,-9.07,"(0.0, 0.0, 0.0, 0.0, 0.0, 0.0, 0.0, 0.0, 0.0)",0,0,0,,0.0292,-0.2029,0.3485,"(0.0, 0.0, 0.0, 0.0, 0.0, 0.0, 0.0, 0.0, 0.0)",-1.178,11.321,71.736,"$VNYMR,+071.736,+011.321,-001.178,+00.0292,-00.2029,+00.3485,+03.538,-00.704,-09.070,+00.051882,-00.006699,-00.204954*67
"
1667362682.7005758,0,1667362682,689212083,IMU1_Frame,0,0,0,,-0.06572922531883252,0.07403413635920655,0.5817570548689235,0.8073148981052988,"(0.0, 0.0, 0.0, 0.0, 0.0, 0.0, 0.0, 0.0, 0.0)",0.046517,-0.010436,-0.204958,"(0.0, 0.0, 0.0, 0.0, 0.0, 0.0, 0.0, 0.0, 0.0)",3.83,-0.587,-9.175,"(0.0, 0.0, 0.0, 0.0, 0.0, 0.0, 0.0, 0.0, 0.0)",0,0,0,,0.0303,-0.195,0.3495,"(0.0, 0.0, 0.0, 0.0, 0.0, 0.0, 0.0, 0.0, 0.0)",-1.168,11.304,71.438,"$VNYMR,+071.438,+011.304,-001.168,+00.0303,-00.1950,+00.3495,+03.830,-00.587,-09.175,+00.046517,-00.010436,-00.204958*63
"
1667362682.7438028,0,1667362682,713816642,IMU1_Frame,0,0,0,,-0.06535320212528228,0.07407035638431811,0.5795770903447504,0.8089084853211674,"(0.0, 0.0, 0.0, 0.0, 0.0, 0.0, 0.0, 0.0, 0.0)",0.040396,-0.007292,-0.211691,"(0.0, 0.0, 0.0, 0.0, 0.0, 0.0, 0.0, 0.0, 0.0)",4.183,-0.421,-9.459,"(0.0, 0.0, 0.0, 0.0, 0.0, 0.0, 0.0, 0.0, 0.0)",0,0,0,,0.0321,-0.202,0.3497,"(0.0, 0.0, 0.0, 0.0, 0.0, 0.0, 0.0, 0.0, 0.0)",-1.161,11.279,71.128,"$VNYMR,+071.128,+011.279,-001.161,+00.0321,-00.2020,+00.3497,+04.183,-00.421,-09.459,+00.040396,-00.007292,-00.211691*63
"
1667362682.7438262,0,1667362682,738766908,IMU1_Frame,0,0,0,,-0.06493480979288586,0.07409419514759552,0.5773012057134804,0.8105657521782877,"(0.0, 0.0, 0.0, 0.0, 0.0, 0.0, 0.0, 0.0, 0.0)",0.05289,-0.013689,-0.227185,"(0.0, 0.0, 0.0, 0.0, 0.0, 0.0, 0.0, 0.0, 0.0)",3.769,-0.617,-9.29,"(0.0, 0.0, 0.0, 0.0, 0.0, 0.0, 0.0, 0.0, 0.0)",0,0,0,,0.032,-0.205,0.3442,"(0.0, 0.0, 0.0, 0.0, 0.0, 0.0, 0.0, 0.0, 0.0)",-1.152,11.25,70.805,"$VNYMR,+070.805,+011.250,-001.152,+00.0320,-00.2050,+00.3442,+03.769,-00.617,-09.290,+00.052890,-00.013689,-00.227185*62
"
1667362682.7870514,0,1667362682,764551401,IMU1_Frame,0,0,0,,-0.06455915470353282,0.07409775865743454,0.5749673293422559,0.8122525517934331,"(0.0, 0.0, 0.0, 0.0, 0.0, 0.0, 0.0, 0.0, 0.0)",0.054189,-0.014614,-0.232346,"(0.0, 0.0, 0.0, 0.0, 0.0, 0.0, 0.0, 0.0, 0.0)",3.012,-0.744,-9.273,"(0.0, 0.0, 0.0, 0.0, 0.0, 0.0, 0.0, 0.0, 0.0)",0,0,0,,0.0331,-0.201,0.352,"(0.0, 0.0, 0.0, 0.0, 0.0, 0.0, 0.0, 0.0, 0.0)",-1.149,11.222,70.474,"$VNYMR,+070.474,+011.222,-001.149,+00.0331,-00.2010,+00.3520,+03.012,-00.744,-09.273,+00.054189,-00.014614,-00.232346*6A
"
1667362682.789788,0,1667362682,789432525,IMU1_Frame,0,0,0,,-0.06417219596912999,0.07404490030450601,0.5725974310715201,0.8139603577163272,"(0.0, 0.0, 0.0, 0.0, 0.0, 0.0, 0.0, 0.0, 0.0)",0.044528,-0.026837,-0.228725,"(0.0, 0.0, 0.0, 0.0, 0.0, 0.0, 0.0, 0.0, 0.0)",2.567,-0.824,-9.221,"(0.0, 0.0, 0.0, 0.0, 0.0, 0.0, 0.0, 0.0, 0.0)",0,0,0,,0.0322,-0.1931,0.3452,"(0.0, 0.0, 0.0, 0.0, 0.0, 0.0, 0.0, 0.0, 0.0)",-1.149,11.188,70.138,"$VNYMR,+070.138,+011.188,-001.149,+00.0322,-00.1931,+00.3452,+02.567,-00.824,-09.221,+00.044528,-00.026837,-00.228725*69
"
1667362682.8303773,0,1667362682,814420938,IMU1_Frame,0,0,0,,-0.0637492261552878,0.073953758732851,0.5701465917592223,0.8157203820177771,"(0.0, 0.0, 0.0, 0.0, 0.0, 0.0, 0.0, 0.0, 0.0)",0.045113,-0.019742,-0.240896,"(0.0, 0.0, 0.0, 0.0, 0.0, 0.0, 0.0, 0.0, 0.0)",2.259,-0.805,-9.373,"(0.0, 0.0, 0.0, 0.0, 0.0, 0.0, 0.0, 0.0, 0.0)",0,0,0,,0.0349,-0.2031,0.3521,"(0.0, 0.0, 0.0, 0.0, 0.0, 0.0, 0.0, 0.0, 0.0)",-1.149,11.148,69.791,"$VNYMR,+069.791,+011.148,-001.149,+00.0349,-00.2031,+00.3521,+02.259,-00.805,-09.373,+00.045113,-00.019742,-00.240896*60
"
1667362682.8738708,0,1667362682,839293241,IMU1_Frame,0,0,0,,-0.06335854926227265,0.07383982834287577,0.5676435592173078,0.8175048401476175,"(0.0, 0.0, 0.0, 0.0, 0.0, 0.0, 0.0, 0.0, 0.0)",0.041415,-0.022919,-0.243485,"(0.0, 0.0, 0.0, 0.0, 0.0, 0.0, 0.0, 0.0, 0.0)",2.024,-0.818,-9.317,"(0.0, 0.0, 0.0, 0.0, 0.0, 0.0, 0.0, 0.0, 0.0)",0,0,0,,0.0341,-0.1941,0.3519,"(0.0, 0.0, 0.0, 0.0, 0.0, 0.0, 0.0, 0.0, 0.0)",-1.154,11.108,69.437,"$VNYMR,+069.437,+011.108,-001.154,+00.0341,-00.1941,+00.3519,+02.024,-00.818,-09.317,+00.041415,-00.022919,-00.243485*6D
"
1667362682.8738925,0,1667362682,864296674,IMU1_Frame,0,0,0,,-0.0629850319347897,0.07368244318043764,0.5650820790009394,0.8193204667961804,"(0.0, 0.0, 0.0, 0.0, 0.0, 0.0, 0.0, 0.0, 0.0)",0.039394,-0.030961,-0.248416,"(0.0, 0.0, 0.0, 0.0, 0.0, 0.0, 0.0, 0.0, 0.0)",2.142,-0.818,-9.436,"(0.0, 0.0, 0.0, 0.0, 0.0, 0.0, 0.0, 0.0, 0.0)",0,0,0,,0.0388,-0.1962,0.3499,"(0.0, 0.0, 0.0, 0.0, 0.0, 0.0, 0.0, 0.0, 0.0)",-1.164,11.065,69.075,"$VNYMR,+069.075,+011.065,-001.164,+00.0388,-00.1962,+00.3499,+02.142,-00.818,-09.436,+00.039394,-00.030961,-00.248416*62
"
1667362682.9170923,0,1667362682,889166355,IMU1_Frame,0,0,0,,-0.06262653120260138,0.07346246651669824,0.5624631716719983,0.8211676833116904,"(0.0, 0.0, 0.0, 0.0, 0.0, 0.0, 0.0, 0.0, 0.0)",0.035383,-0.039497,-0.251412,"(0.0, 0.0, 0.0, 0.0, 0.0, 0.0, 0.0, 0.0, 0.0)",1.932,-0.633,-9.157,"(0.0, 0.0, 0.0, 0.0, 0.0, 0.0, 0.0, 0.0, 0.0)",0,0,0,,0.036,-0.1922,0.3498,"(0.0, 0.0, 0.0, 0.0, 0.0, 0.0, 0.0, 0.0, 0.0)",-1.18,11.017,68.705,"$VNYMR,+068.705,+011.017,-001.180,+00.0360,-00.1922,+00.3498,+01.932,-00.633,-09.157,+00.035383,-00.039497,-00.251412*6D
"
1667362682.9171128,0,1667362682,914352655,IMU1_Frame,0,0,0,,-0.06226435420020866,0.07324581812959227,0.5597733804934122,0.8230504011380684,"(0.0, 0.0, 0.0, 0.0, 0.0, 0.0, 0.0, 0.0, 0.0)",0.040104,-0.029697,-0.262547,"(0.0, 0.0, 0.0, 0.0, 0.0, 0.0, 0.0, 0.0, 0.0)",2.247,-0.661,-9.342,"(0.0, 0.0, 0.0, 0.0, 0.0, 0.0, 0.0, 0.0, 0.0)",0,0,0,,0.0398,-0.1933,0.3599,"(0.0, 0.0, 0.0, 0.0, 0.0, 0.0, 0.0, 0.0, 0.0)",-1.196,10.969,68.326,"$VNYMR,+068.326,+010.969,-001.196,+00.0398,-00.1933,+00.3599,+02.247,-00.661,-09.342,+00.040104,-00.029697,-00.262547*6F
"
1667362682.9603884,0,1667362682,938979387,IMU1_Frame,0,0,0,,-0.06192314635319691,0.07300523156028282,0.5570224272412133,0.8249616813288102,"(0.0, 0.0, 0.0, 0.0, 0.0, 0.0, 0.0, 0.0, 0.0)",0.035362,-0.029593,-0.267554,"(0.0, 0.0, 0.0, 0.0, 0.0, 0.0, 0.0, 0.0, 0.0)",2.002,-0.725,-9.312,"(0.0, 0.0, 0.0, 0.0, 0.0, 0.0, 0.0, 0.0, 0.0)",0,0,0,,0.0427,-0.1884,0.3567,"(0.0, 0.0, 0.0, 0.0, 0.0, 0.0, 0.0, 0.0, 0.0)",-1.216,10.92,67.939,"$VNYMR,+067.939,+010.920,-001.216,+00.0427,-00.1884,+00.3567,+02.002,-00.725,-09.312,+00.035362,-00.029593,-00.267554*6A
"
1667362682.9643092,0,1667362682,963927268,IMU1_Frame,0,0,0,,-0.06158637793394852,0.07273127071765895,0.5542100283446932,0.8269029718140731,"(0.0, 0.0, 0.0, 0.0, 0.0, 0.0, 0.0, 0.0, 0.0)",0.037251,-0.034907,-0.274158,"(0.0, 0.0, 0.0, 0.0, 0.0, 0.0, 0.0, 0.0, 0.0)",1.847,-0.694,-9.173,"(0.0, 0.0, 0.0, 0.0, 0.0, 0.0, 0.0, 0.0, 0.0)",0,0,0,,0.0398,-0.1853,0.3521,"(0.0, 0.0, 0.0, 0.0, 0.0, 0.0, 0.0, 0.0, 0.0)",-1.239,10.868,67.544,"$VNYMR,+067.544,+010.868,-001.239,+00.0398,-00.1853,+00.3521,+01.847,-00.694,-09.173,+00.037251,-00.034907,-00.274158*67
"
1667362683.007044,0,1667362682,988824844,IMU1_Frame,0,0,0,,-0.06124898168199849,0.0724485914922923,0.5513264863591644,0.8288780786536457,"(0.0, 0.0, 0.0, 0.0, 0.0, 0.0, 0.0, 0.0, 0.0)",0.041591,-0.032539,-0.283699,"(0.0, 0.0, 0.0, 0.0, 0.0, 0.0, 0.0, 0.0, 0.0)",1.826,-0.659,-9.119,"(0.0, 0.0, 0.0, 0.0, 0.0, 0.0, 0.0, 0.0, 0.0)",0,0,0,,0.0426,-0.1874,0.3489,"(0.0, 0.0, 0.0, 0.0, 0.0, 0.0, 0.0, 0.0, 0.0)",-1.263,10.815,67.14,"$VNYMR,+067.140,+010.815,-001.263,+00.0426,-00.1874,+00.3489,+01.826,-00.659,-09.119,+00.041591,-00.032539,-00.283699*63
"
1667362683.0507226,0,1667362683,13760805,IMU1_Frame,0,0,0,,-0.060925507981412816,0.07218885664816656,0.5483982445242567,0.8308647404095029,"(0.0, 0.0, 0.0, 0.0, 0.0, 0.0, 0.0, 0.0, 0.0)",0.040598,-0.022153,-0.284736,"(0.0, 0.0, 0.0, 0.0, 0.0, 0.0, 0.0, 0.0, 0.0)",1.781,-0.609,-9.385,"(0.0, 0.0, 0.0, 0.0, 0.0, 0.0, 0.0, 0.0, 0.0)",0,0,0,,0.0436,-0.1825,0.3489,"(0.0, 0.0, 0.0, 0.0, 0.0, 0.0, 0.0, 0.0, 0.0)",-1.287,10.765,66.731,"$VNYMR,+066.731,+010.765,-001.287,+00.0436,-00.1825,+00.3489,+01.781,-00.609,-09.385,+00.040598,-00.022153,-00.284736*67
"
1667362683.0507448,0,1667362683,38711309,IMU1_Frame,0,0,0,,-0.06058225182030741,0.07193260259180176,0.5454253309169764,0.8328665558436461,"(0.0, 0.0, 0.0, 0.0, 0.0, 0.0, 0.0, 0.0, 0.0)",0.041898,-0.026852,-0.289565,"(0.0, 0.0, 0.0, 0.0, 0.0, 0.0, 0.0, 0.0, 0.0)",2.0,-0.296,-9.644,"(0.0, 0.0, 0.0, 0.0, 0.0, 0.0, 0.0, 0.0, 0.0)",0,0,0,,0.0492,-0.1836,0.3414,"(0.0, 0.0, 0.0, 0.0, 0.0, 0.0, 0.0, 0.0, 0.0)",-1.309,10.714,66.317,"$VNYMR,+066.317,+010.714,-001.309,+00.0492,-00.1836,+00.3414,+02.000,-00.296,-09.644,+00.041898,-00.026852,-00.289565*60
"
1667362683.0943573,0,1667362683,64480066,IMU1_Frame,0,0,0,,-0.06018751626767943,0.0717105549293028,0.542404032578317,0.8348849768920501,"(0.0, 0.0, 0.0, 0.0, 0.0, 0.0, 0.0, 0.0, 0.0)",0.050002,-0.031057,-0.293796,"(0.0, 0.0, 0.0, 0.0, 0.0, 0.0, 0.0, 0.0, 0.0)",2.136,-0.236,-9.769,"(0.0, 0.0, 0.0, 0.0, 0.0, 0.0, 0.0, 0.0, 0.0)",0,0,0,,0.0455,-0.1835,0.3468,"(0.0, 0.0, 0.0, 0.0, 0.0, 0.0, 0.0, 0.0, 0.0)",-1.324,10.663,65.898,"$VNYMR,+065.898,+010.663,-001.324,+00.0455,-00.1835,+00.3468,+02.136,-00.236,-09.769,+00.050002,-00.031057,-00.293796*67
"
1667362683.0943892,0,1667362683,89369297,IMU1_Frame,0,0,0,,-0.05977027313133909,0.07153412938031965,0.5393416645330865,0.8369115554718338,"(0.0, 0.0, 0.0, 0.0, 0.0, 0.0, 0.0, 0.0, 0.0)",0.050738,-0.02702,-0.291489,"(0.0, 0.0, 0.0, 0.0, 0.0, 0.0, 0.0, 0.0, 0.0)",2.427,-0.093,-9.732,"(0.0, 0.0, 0.0, 0.0, 0.0, 0.0, 0.0, 0.0, 0.0)",0,0,0,,0.0436,-0.1844,0.3478,"(0.0, 0.0, 0.0, 0.0, 0.0, 0.0, 0.0, 0.0, 0.0)",-1.334,10.615,65.475,"$VNYMR,+065.475,+010.615,-001.334,+00.0436,-00.1844,+00.3478,+02.427,-00.093,-09.732,+00.050738,-00.027020,-00.291489*6A
"
1667362683.1370833,0,1667362683,114306211,IMU1_Frame,0,0,0,,-0.05932801012159919,0.07141454668640819,0.5362444793554533,0.8389410039432958,"(0.0, 0.0, 0.0, 0.0, 0.0, 0.0, 0.0, 0.0, 0.0)",0.047687,-0.017554,-0.291482,"(0.0, 0.0, 0.0, 0.0, 0.0, 0.0, 0.0, 0.0, 0.0)",2.506,-0.291,-10.157,"(0.0, 0.0, 0.0, 0.0, 0.0, 0.0, 0.0, 0.0, 0.0)",0,0,0,,0.0531,-0.1857,0.3594,"(0.0, 0.0, 0.0, 0.0, 0.0, 0.0, 0.0, 0.0, 0.0)",-1.338,10.571,65.049,"$VNYMR,+065.049,+010.571,-001.338,+00.0531,-00.1857,+00.3594,+02.506,-00.291,-10.157,+00.047687,-00.017554,-00.291482*69
"
1667362683.1395774,0,1667362683,139187812,IMU1_Frame,0,0,0,,-0.058845572434513584,0.07132997527275058,0.5331061254856259,0.8409798405444374,"(0.0, 0.0, 0.0, 0.0, 0.0, 0.0, 0.0, 0.0, 0.0)",0.056729,-0.02777,-0.293488,"(0.0, 0.0, 0.0, 0.0, 0.0, 0.0, 0.0, 0.0, 0.0)",2.457,-0.221,-10.003,"(0.0, 0.0, 0.0, 0.0, 0.0, 0.0, 0.0, 0.0, 0.0)",0,0,0,,0.0493,-0.1826,0.3558,"(0.0, 0.0, 0.0, 0.0, 0.0, 0.0, 0.0, 0.0, 0.0)",-1.336,10.528,64.619,"$VNYMR,+064.619,+010.528,-001.336,+00.0493,-00.1826,+00.3558,+02.457,-00.221,-10.003,+00.056729,-00.027770,-00.293488*62
"
1667362683.180358,0,1667362683,164243936,IMU1_Frame,0,0,0,,-0.058396233801257635,0.07131574488040227,0.5299268654076565,0.8430192534747933,"(0.0, 0.0, 0.0, 0.0, 0.0, 0.0, 0.0, 0.0, 0.0)",0.055826,-0.019282,-0.295629,"(0.0, 0.0, 0.0, 0.0, 0.0, 0.0, 0.0, 0.0, 0.0)",2.241,-0.301,-9.893,"(0.0, 0.0, 0.0, 0.0, 0.0, 0.0, 0.0, 0.0, 0.0)",0,0,0,,0.0541,-0.1748,0.356,"(0.0, 0.0, 0.0, 0.0, 0.0, 0.0, 0.0, 0.0, 0.0)",-1.333,10.494,64.185,"$VNYMR,+064.185,+010.494,-001.333,+00.0541,-00.1748,+00.3560,+02.241,-00.301,-09.893,+00.055826,-00.019282,-00.295629*63
"
1667362683.2237275,0,1667362683,189060449,IMU1_Frame,0,0,0,,-0.05792370822382887,0.07137561307455399,0.5267334044213894,0.8450457304492376,"(0.0, 0.0, 0.0, 0.0, 0.0, 0.0, 0.0, 0.0, 0.0)",0.062696,-0.01495,-0.297594,"(0.0, 0.0, 0.0, 0.0, 0.0, 0.0, 0.0, 0.0, 0.0)",1.959,-0.473,-9.763,"(0.0, 0.0, 0.0, 0.0, 0.0, 0.0, 0.0, 0.0, 0.0)",0,0,0,,0.0569,-0.1789,0.3595,"(0.0, 0.0, 0.0, 0.0, 0.0, 0.0, 0.0, 0.0, 0.0)",-1.323,10.466,63.751,"$VNYMR,+063.751,+010.466,-001.323,+00.0569,-00.1789,+00.3595,+01.959,-00.473,-09.763,+00.062696,-00.014950,-00.297594*66
"
1667362683.223752,0,1667362683,213948488,IMU1_Frame,0,0,0,,-0.05741958727153109,0.07153475720565679,0.52350174690315,0.8470724234080845,"(0.0, 0.0, 0.0, 0.0, 0.0, 0.0, 0.0, 0.0, 0.0)",0.066317,-0.005996,-0.297807,"(0.0, 0.0, 0.0, 0.0, 0.0, 0.0, 0.0, 0.0, 0.0)",1.537,-0.628,-9.43,"(0.0, 0.0, 0.0, 0.0, 0.0, 0.0, 0.0, 0.0, 0.0)",0,0,0,,0.057,-0.1769,0.3594,"(0.0, 0.0, 0.0, 0.0, 0.0, 0.0, 0.0, 0.0, 0.0)",-1.304,10.446,63.314,"$VNYMR,+063.314,+010.446,-001.304,+00.0570,-00.1769,+00.3594,+01.537,-00.628,-09.430,+00.066317,-00.005996,-00.297807*6B
"
1667362683.2670712,0,1667362683,238924980,IMU1_Frame,0,0,0,,-0.05688170273289586,0.0717425764618533,0.5202279251078954,0.8491056356866062,"(0.0, 0.0, 0.0, 0.0, 0.0, 0.0, 0.0, 0.0, 0.0)",0.078946,-0.002124,-0.307009,"(0.0, 0.0, 0.0, 0.0, 0.0, 0.0, 0.0, 0.0, 0.0)",1.568,-0.594,-9.497,"(0.0, 0.0, 0.0, 0.0, 0.0, 0.0, 0.0, 0.0, 0.0)",0,0,0,,0.0561,-0.1739,0.3605,"(0.0, 0.0, 0.0, 0.0, 0.0, 0.0, 0.0, 0.0, 0.0)",-1.279,10.429,62.873,"$VNYMR,+062.873,+010.429,-001.279,+00.0561,-00.1739,+00.3605,+01.568,-00.594,-09.497,+00.078946,-00.002124,-00.307009*66
"
1667362683.2671034,0,1667362683,263884544,IMU1_Frame,0,0,0,,-0.05635486673515202,0.07202181317166229,0.5169194253690657,0.851135297763431,"(0.0, 0.0, 0.0, 0.0, 0.0, 0.0, 0.0, 0.0, 0.0)",0.072424,0.008426,-0.303026,"(0.0, 0.0, 0.0, 0.0, 0.0, 0.0, 0.0, 0.0, 0.0)",1.318,-0.431,-9.317,"(0.0, 0.0, 0.0, 0.0, 0.0, 0.0, 0.0, 0.0, 0.0)",0,0,0,,0.0571,-0.1679,0.3583,"(0.0, 0.0, 0.0, 0.0, 0.0, 0.0, 0.0, 0.0, 0.0)",-1.251,10.42,62.429,"$VNYMR,+062.429,+010.420,-001.251,+00.0571,-00.1679,+00.3583,+01.318,-00.431,-09.317,+00.072424,+00.008426,-00.303026*6E
"
1667362683.3104074,0,1667362683,288793325,IMU1_Frame,0,0,0,,-0.05583060293028632,0.07236756090953946,0.5135392518738041,0.8531842220114823,"(0.0, 0.0, 0.0, 0.0, 0.0, 0.0, 0.0, 0.0, 0.0)",0.082012,0.014731,-0.315897,"(0.0, 0.0, 0.0, 0.0, 0.0, 0.0, 0.0, 0.0, 0.0)",1.164,-0.924,-9.027,"(0.0, 0.0, 0.0, 0.0, 0.0, 0.0, 0.0, 0.0, 0.0)",0,0,0,,0.0617,-0.18,0.3652,"(0.0, 0.0, 0.0, 0.0, 0.0, 0.0, 0.0, 0.0, 0.0)",-1.22,10.418,61.977,"$VNYMR,+061.977,+010.418,-001.220,+00.0617,-00.1800,+00.3652,+01.164,-00.924,-09.027,+00.082012,+00.014731,-00.315897*69
"
1667362683.315244,0,1667362683,314806222,IMU1_Frame,0,0,0,,-0.05538355452735347,0.07268409368910841,0.5101043743078454,0.8552445332912161,"(0.0, 0.0, 0.0, 0.0, 0.0, 0.0, 0.0, 0.0, 0.0)",0.074519,0.011127,-0.317556,"(0.0, 0.0, 0.0, 0.0, 0.0, 0.0, 0.0, 0.0, 0.0)",1.476,-0.763,-9.193,"(0.0, 0.0, 0.0, 0.0, 0.0, 0.0, 0.0, 0.0, 0.0)",0,0,0,,0.0636,-0.1771,0.3597,"(0.0, 0.0, 0.0, 0.0, 0.0, 0.0, 0.0, 0.0, 0.0)",-1.199,10.418,61.518,"$VNYMR,+061.518,+010.418,-001.199,+00.0636,-00.1771,+00.3597,+01.476,-00.763,-09.193,+00.074519,+00.011127,-00.317556*69
"
1667362683.3571155,0,1667362683,339486122,IMU1_Frame,0,0,0,,-0.05501872825446022,0.07305041006167276,0.5066019318876388,0.8573161958920382,"(0.0, 0.0, 0.0, 0.0, 0.0, 0.0, 0.0, 0.0, 0.0)",0.077956,0.015801,-0.327109,"(0.0, 0.0, 0.0, 0.0, 0.0, 0.0, 0.0, 0.0, 0.0)",1.276,-0.795,-9.109,"(0.0, 0.0, 0.0, 0.0, 0.0, 0.0, 0.0, 0.0, 0.0)",0,0,0,,0.0636,-0.178,0.3664,"(0.0, 0.0, 0.0, 0.0, 0.0, 0.0, 0.0, 0.0, 0.0)",-1.184,10.428,61.051,"$VNYMR,+061.051,+010.428,-001.184,+00.0636,-00.1780,+00.3664,+01.276,-00.795,-09.109,+00.077956,+00.015801,-00.327109*63
"
1667362683.4007766,0,1667362683,364418506,IMU1_Frame,0,0,0,,-0.05460735031703778,0.07340143131717977,0.5030379204408749,0.8594085860465098,"(0.0, 0.0, 0.0, 0.0, 0.0, 0.0, 0.0, 0.0, 0.0)",0.078734,0.01614,-0.329756,"(0.0, 0.0, 0.0, 0.0, 0.0, 0.0, 0.0, 0.0, 0.0)",1.099,-0.794,-9.164,"(0.0, 0.0, 0.0, 0.0, 0.0, 0.0, 0.0, 0.0, 0.0)",0,0,0,,0.0627,-0.1691,0.3641,"(0.0, 0.0, 0.0, 0.0, 0.0, 0.0, 0.0, 0.0, 0.0)",-1.166,10.434,60.577,"$VNYMR,+060.577,+010.434,-001.166,+00.0627,-00.1691,+00.3641,+01.099,-00.794,-09.164,+00.078734,+00.016140,-00.329756*65
"
1667362683.400802,0,1667362683,389394760,IMU1_Frame,0,0,0,,-0.0541805589748493,0.07381866106075634,0.49943753115466943,0.8614971995209844,"(0.0, 0.0, 0.0, 0.0, 0.0, 0.0, 0.0, 0.0, 0.0)",0.08397,0.015574,-0.334015,"(0.0, 0.0, 0.0, 0.0, 0.0, 0.0, 0.0, 0.0, 0.0)",1.601,-0.834,-9.512,"(0.0, 0.0, 0.0, 0.0, 0.0, 0.0, 0.0, 0.0, 0.0)",0,0,0,,0.0647,-0.1622,0.3574,"(0.0, 0.0, 0.0, 0.0, 0.0, 0.0, 0.0, 0.0, 0.0)",-1.143,10.446,60.1,"$VNYMR,+060.100,+010.446,-001.143,+00.0647,-00.1622,+00.3574,+01.601,-00.834,-09.512,+00.083970,+00.015574,-00.334015*69
"
1667362683.4438717,0,1667362683,414232730,IMU1_Frame,0,0,0,,-0.053713545846606384,0.07424570849534096,0.4957884580193972,0.863594948258359,"(0.0, 0.0, 0.0, 0.0, 0.0, 0.0, 0.0, 0.0, 0.0)",0.073092,0.021935,-0.326766,"(0.0, 0.0, 0.0, 0.0, 0.0, 0.0, 0.0, 0.0, 0.0)",1.963,-0.794,-9.501,"(0.0, 0.0, 0.0, 0.0, 0.0, 0.0, 0.0, 0.0, 0.0)",0,0,0,,0.0599,-0.172,0.3617,"(0.0, 0.0, 0.0, 0.0, 0.0, 0.0, 0.0, 0.0, 0.0)",-1.116,10.457,59.618,"$VNYMR,+059.618,+010.457,-001.116,+00.0599,-00.1720,+00.3617,+01.963,-00.794,-09.501,+00.073092,+00.021935,-00.326766*60
"
1667362683.4438946,0,1667362683,439140796,IMU1_Frame,0,0,0,,-0.053239044145225026,0.07469372331923296,0.4920612178703477,0.8657148547548222,"(0.0, 0.0, 0.0, 0.0, 0.0, 0.0, 0.0, 0.0, 0.0)",0.075646,0.015346,-0.330657,"(0.0, 0.0, 0.0, 0.0, 0.0, 0.0, 0.0, 0.0, 0.0)",2.604,-0.659,-9.303,"(0.0, 0.0, 0.0, 0.0, 0.0, 0.0, 0.0, 0.0, 0.0)",0,0,0,,0.0675,-0.1662,0.3642,"(0.0, 0.0, 0.0, 0.0, 0.0, 0.0, 0.0, 0.0, 0.0)",-1.088,10.47,59.127,"$VNYMR,+059.127,+010.470,-001.088,+00.0675,-00.1662,+00.3642,+02.604,-00.659,-09.303,+00.075646,+00.015346,-00.330657*63
"
1667362683.4870749,0,1667362683,464066743,IMU1_Frame,0,0,0,,-0.05280521317579874,0.07510529959966336,0.4882691529132924,0.8678502392387981,"(0.0, 0.0, 0.0, 0.0, 0.0, 0.0, 0.0, 0.0, 0.0)",0.0701,0.012,-0.34073,"(0.0, 0.0, 0.0, 0.0, 0.0, 0.0, 0.0, 0.0, 0.0)",3.566,-0.741,-9.671,"(0.0, 0.0, 0.0, 0.0, 0.0, 0.0, 0.0, 0.0, 0.0)",0,0,0,,0.0646,-0.1652,0.3564,"(0.0, 0.0, 0.0, 0.0, 0.0, 0.0, 0.0, 0.0, 0.0)",-1.067,10.482,58.628,"$VNYMR,+058.628,+010.482,-001.067,+00.0646,-00.1652,+00.3564,+03.566,-00.741,-09.671,+00.070100,+00.012000,-00.340730*6D
"
1667362683.4893913,0,1667362683,489011764,IMU1_Frame,0,0,0,,-0.05239474376238422,0.07552067843113844,0.4844083707420076,0.8699999702933606,"(0.0, 0.0, 0.0, 0.0, 0.0, 0.0, 0.0, 0.0, 0.0)",0.068323,0.016425,-0.349708,"(0.0, 0.0, 0.0, 0.0, 0.0, 0.0, 0.0, 0.0, 0.0)",3.656,-0.669,-9.524,"(0.0, 0.0, 0.0, 0.0, 0.0, 0.0, 0.0, 0.0, 0.0)",0,0,0,,0.0703,-0.1663,0.3655,"(0.0, 0.0, 0.0, 0.0, 0.0, 0.0, 0.0, 0.0, 0.0)",-1.049,10.496,58.121,"$VNYMR,+058.121,+010.496,-001.049,+00.0703,-00.1663,+00.3655,+03.656,-00.669,-09.524,+00.068323,+00.016425,-00.349708*6E
"
1667362683.530401,0,1667362683,513914346,IMU1_Frame,0,0,0,,-0.05196612812875723,0.07599283138563032,0.4804653377089368,0.8721683727156919,"(0.0, 0.0, 0.0, 0.0, 0.0, 0.0, 0.0, 0.0, 0.0)",0.08914,0.023376,-0.361284,"(0.0, 0.0, 0.0, 0.0, 0.0, 0.0, 0.0, 0.0, 0.0)",3.002,-0.495,-9.641,"(0.0, 0.0, 0.0, 0.0, 0.0, 0.0, 0.0, 0.0, 0.0)",0,0,0,,0.0637,-0.1671,0.3597,"(0.0, 0.0, 0.0, 0.0, 0.0, 0.0, 0.0, 0.0, 0.0)",-1.027,10.515,57.605,"$VNYMR,+057.605,+010.515,-001.027,+00.0637,-00.1671,+00.3597,+03.002,-00.495,-09.641,+00.089140,+00.023376,-00.361284*68
"
1667362683.5737503,0,1667362683,538823604,IMU1_Frame,0,0,0,,-0.05145601230692052,0.07654533486520838,0.4764650860048027,0.8743421025698576,"(0.0, 0.0, 0.0, 0.0, 0.0, 0.0, 0.0, 0.0, 0.0)",0.100482,0.030258,-0.360178,"(0.0, 0.0, 0.0, 0.0, 0.0, 0.0, 0.0, 0.0, 0.0)",2.507,-1.082,-9.392,"(0.0, 0.0, 0.0, 0.0, 0.0, 0.0, 0.0, 0.0, 0.0)",0,0,0,,0.0684,-0.1663,0.3554,"(0.0, 0.0, 0.0, 0.0, 0.0, 0.0, 0.0, 0.0, 0.0)",-0.993,10.538,57.084,"$VNYMR,+057.084,+010.538,-000.993,+00.0684,-00.1663,+00.3554,+02.507,-01.082,-09.392,+00.100482,+00.030258,-00.360178*67
"
1667362683.5737798,0,1667362683,563758134,IMU1_Frame,0,0,0,,-0.05094249905806865,0.0771443840713905,0.4723983636739466,0.8765234690492559,"(0.0, 0.0, 0.0, 0.0, 0.0, 0.0, 0.0, 0.0, 0.0)",0.086422,0.030818,-0.361641,"(0.0, 0.0, 0.0, 0.0, 0.0, 0.0, 0.0, 0.0, 0.0)",2.952,-1.605,-9.059,"(0.0, 0.0, 0.0, 0.0, 0.0, 0.0, 0.0, 0.0, 0.0)",0,0,0,,0.0647,-0.1592,0.3618,"(0.0, 0.0, 0.0, 0.0, 0.0, 0.0, 0.0, 0.0, 0.0)",-0.957,10.566,56.556,"$VNYMR,+056.556,+010.566,-000.957,+00.0647,-00.1592,+00.3618,+02.952,-01.605,-09.059,+00.086422,+00.030818,-00.361641*60
"
1667362683.617108,0,1667362683,588670253,IMU1_Frame,0,0,0,,-0.05047856854715466,0.0776437066752908,0.46822444026461196,0.8787429899976683,"(0.0, 0.0, 0.0, 0.0, 0.0, 0.0, 0.0, 0.0, 0.0)",0.080652,0.017303,-0.374718,"(0.0, 0.0, 0.0, 0.0, 0.0, 0.0, 0.0, 0.0, 0.0)",4.119,-1.285,-9.52,"(0.0, 0.0, 0.0, 0.0, 0.0, 0.0, 0.0, 0.0, 0.0)",0,0,0,,0.0686,-0.1503,0.363,"(0.0, 0.0, 0.0, 0.0, 0.0, 0.0, 0.0, 0.0, 0.0)",-0.933,10.587,56.014,"$VNYMR,+056.014,+010.587,-000.933,+00.0686,-00.1503,+00.3630,+04.119,-01.285,-09.520,+00.080652,+00.017303,-00.374718*69
"
1667362683.6171305,0,1667362683,614492893,IMU1_Frame,0,0,0,,-0.0501160618910106,0.07804685798878887,0.46394519574555415,0.8809948488176498,"(0.0, 0.0, 0.0, 0.0, 0.0, 0.0, 0.0, 0.0, 0.0)",0.070761,0.009421,-0.389201,"(0.0, 0.0, 0.0, 0.0, 0.0, 0.0, 0.0, 0.0, 0.0)",3.667,-1.413,-9.0,"(0.0, 0.0, 0.0, 0.0, 0.0, 0.0, 0.0, 0.0, 0.0)",0,0,0,,0.0657,-0.1592,0.3608,"(0.0, 0.0, 0.0, 0.0, 0.0, 0.0, 0.0, 0.0, 0.0)",-0.926,10.604,55.458,"$VNYMR,+055.458,+010.604,-000.926,+00.0657,-00.1592,+00.3608,+03.667,-01.413,-09.000,+00.070761,+00.009421,-00.389201*6B
"
1667362683.6603823,0,1667362683,639374256,IMU1_Frame,0,0,0,,-0.049892988887108844,0.07825798608972234,0.4595609666763284,0.8832837002801592,"(0.0, 0.0, 0.0, 0.0, 0.0, 0.0, 0.0, 0.0, 0.0)",0.058263,0.005959,-0.396384,"(0.0, 0.0, 0.0, 0.0, 0.0, 0.0, 0.0, 0.0, 0.0)",2.742,-1.608,-8.555,"(0.0, 0.0, 0.0, 0.0, 0.0, 0.0, 0.0, 0.0, 0.0)",0,0,0,,0.0667,-0.1503,0.3652,"(0.0, 0.0, 0.0, 0.0, 0.0, 0.0, 0.0, 0.0, 0.0)",-0.945,10.609,54.887,"$VNYMR,+054.887,+010.609,-000.945,+00.0667,-00.1503,+00.3652,+02.742,-01.608,-08.555,+00.058263,+00.005959,-00.396384*62
"
1667362683.6650686,0,1667362683,664623260,IMU1_Frame,0,0,0,,-0.049708683928245845,0.07839057881164302,0.4551038710525898,0.8855870541333839,"(0.0, 0.0, 0.0, 0.0, 0.0, 0.0, 0.0, 0.0, 0.0)",0.058045,0.0126,-0.397565,"(0.0, 0.0, 0.0, 0.0, 0.0, 0.0, 0.0, 0.0, 0.0)",2.88,-1.051,-9.412,"(0.0, 0.0, 0.0, 0.0, 0.0, 0.0, 0.0, 0.0, 0.0)",0,0,0,,0.061,-0.1551,0.3616,"(0.0, 0.0, 0.0, 0.0, 0.0, 0.0, 0.0, 0.0, 0.0)",-0.973,10.608,54.307,"$VNYMR,+054.307,+010.608,-000.973,+00.0610,-00.1551,+00.3616,+02.880,-01.051,-09.412,+00.058045,+00.012600,-00.397565*61
"
1667362683.7103932,0,1667362683,689224004,IMU1_Frame,0,0,0,,-0.04932384733353144,0.07859614647132741,0.45058864688732153,0.8878962074140924,"(0.0, 0.0, 0.0, 0.0, 0.0, 0.0, 0.0, 0.0, 0.0)",0.0789,-0.002644,-0.401063,"(0.0, 0.0, 0.0, 0.0, 0.0, 0.0, 0.0, 0.0, 0.0)",3.288,-0.802,-9.248,"(0.0, 0.0, 0.0, 0.0, 0.0, 0.0, 0.0, 0.0, 0.0)",0,0,0,,0.0676,-0.1523,0.3619,"(0.0, 0.0, 0.0, 0.0, 0.0, 0.0, 0.0, 0.0, 0.0)",-0.977,10.604,53.723,"$VNYMR,+053.723,+010.604,-000.977,+00.0676,-00.1523,+00.3619,+03.288,-00.802,-09.248,+00.078900,-00.002644,-00.401063*65
"
1667362683.753807,0,1667362683,714256048,IMU1_Frame,0,0,0,,-0.048702425086175276,0.07885998072091044,0.44601382443791643,0.8902139325138013,"(0.0, 0.0, 0.0, 0.0, 0.0, 0.0, 0.0, 0.0, 0.0)",0.101423,-0.001341,-0.408597,"(0.0, 0.0, 0.0, 0.0, 0.0, 0.0, 0.0, 0.0, 0.0)",3.033,-0.981,-9.687,"(0.0, 0.0, 0.0, 0.0, 0.0, 0.0, 0.0, 0.0, 0.0)",0,0,0,,0.0658,-0.1493,0.3596,"(0.0, 0.0, 0.0, 0.0, 0.0, 0.0, 0.0, 0.0, 0.0)",-0.954,10.594,53.135,"$VNYMR,+053.135,+010.594,-000.954,+00.0658,-00.1493,+00.3596,+03.033,-00.981,-09.687,+00.101423,-00.001341,-00.408597*65
"
1667362683.753836,0,1667362683,739084720,IMU1_Frame,0,0,0,,-0.04800983152951432,0.07925171515827249,0.4413372843996736,0.8925444656260557,"(0.0, 0.0, 0.0, 0.0, 0.0, 0.0, 0.0, 0.0, 0.0)",0.106832,0.004545,-0.414465,"(0.0, 0.0, 0.0, 0.0, 0.0, 0.0, 0.0, 0.0, 0.0)",2.856,-1.447,-9.456,"(0.0, 0.0, 0.0, 0.0, 0.0, 0.0, 0.0, 0.0, 0.0)",0,0,0,,0.0696,-0.1454,0.363,"(0.0, 0.0, 0.0, 0.0, 0.0, 0.0, 0.0, 0.0, 0.0)",-0.918,10.594,52.537,"$VNYMR,+052.537,+010.594,-000.918,+00.0696,-00.1454,+00.3630,+02.856,-01.447,-09.456,+00.106832,+00.004545,-00.414465*65
"
1667362683.797478,0,1667362683,764029979,IMU1_Frame,0,0,0,,-0.04748662456677723,0.07972898524089067,0.43659052302772466,0.8948614555349277,"(0.0, 0.0, 0.0, 0.0, 0.0, 0.0, 0.0, 0.0, 0.0)",0.072376,0.048309,-0.412336,"(0.0, 0.0, 0.0, 0.0, 0.0, 0.0, 0.0, 0.0, 0.0)",3.259,-1.398,-9.422,"(0.0, 0.0, 0.0, 0.0, 0.0, 0.0, 0.0, 0.0, 0.0)",0,0,0,,0.0648,-0.1473,0.3584,"(0.0, 0.0, 0.0, 0.0, 0.0, 0.0, 0.0, 0.0, 0.0)",-0.896,10.612,51.931,"$VNYMR,+051.931,+010.612,-000.896,+00.0648,-00.1473,+00.3584,+03.259,-01.398,-09.422,+00.072376,+00.048309,-00.412336*66
"
1667362683.7974954,0,1667362683,788925409,IMU1_Frame,0,0,0,,-0.04698996131051127,0.08022862195327411,0.431653079121777,0.8972351592755403,"(0.0, 0.0, 0.0, 0.0, 0.0, 0.0, 0.0, 0.0, 0.0)",0.088938,0.0232,-0.436567,"(0.0, 0.0, 0.0, 0.0, 0.0, 0.0, 0.0, 0.0, 0.0)",3.554,-1.057,-9.689,"(0.0, 0.0, 0.0, 0.0, 0.0, 0.0, 0.0, 0.0, 0.0)",0,0,0,,0.0696,-0.1434,0.3641,"(0.0, 0.0, 0.0, 0.0, 0.0, 0.0, 0.0, 0.0, 0.0)",-0.878,10.634,51.302,"$VNYMR,+051.302,+010.634,-000.878,+00.0696,-00.1434,+00.3641,+03.554,-01.057,-09.689,+00.088938,+00.023200,-00.436567*6F
"
1667362683.8403661,0,1667362683,813849687,IMU1_Frame,0,0,0,,-0.04645584939162163,0.08055853554022763,0.42668807757331434,0.8996051694302929,"(0.0, 0.0, 0.0, 0.0, 0.0, 0.0, 0.0, 0.0, 0.0)",0.08985,0.001314,-0.436345,"(0.0, 0.0, 0.0, 0.0, 0.0, 0.0, 0.0, 0.0, 0.0)",3.068,-1.358,-9.389,"(0.0, 0.0, 0.0, 0.0, 0.0, 0.0, 0.0, 0.0, 0.0)",0,0,0,,0.0706,-0.1405,0.3641,"(0.0, 0.0, 0.0, 0.0, 0.0, 0.0, 0.0, 0.0, 0.0)",-0.865,10.637,50.67,"$VNYMR,+050.670,+010.637,-000.865,+00.0706,-00.1405,+00.3641,+03.068,-01.358,-09.389,+00.089850,+00.001314,-00.436345*64
"
1667362683.8403873,0,1667362683,838793516,IMU1_Frame,0,0,0,,-0.045903755204556515,0.08088320221651435,0.42166240428156854,0.9019709361574849,"(0.0, 0.0, 0.0, 0.0, 0.0, 0.0, 0.0, 0.0, 0.0)",0.071767,-0.003242,-0.421035,"(0.0, 0.0, 0.0, 0.0, 0.0, 0.0, 0.0, 0.0, 0.0)",3.14,-1.095,-9.567,"(0.0, 0.0, 0.0, 0.0, 0.0, 0.0, 0.0, 0.0, 0.0)",0,0,0,,0.0706,-0.1375,0.3641,"(0.0, 0.0, 0.0, 0.0, 0.0, 0.0, 0.0, 0.0, 0.0)",-0.851,10.639,50.032,"$VNYMR,+050.032,+010.639,-000.851,+00.0706,-00.1375,+00.3641,+03.140,-01.095,-09.567,+00.071767,-00.003242,-00.421035*6A
"
1667362683.8836944,0,1667362683,864558696,IMU1_Frame,0,0,0,,-0.04525636623816518,0.08126679588303719,0.41655140204138386,0.9043409194873243,"(0.0, 0.0, 0.0, 0.0, 0.0, 0.0, 0.0, 0.0, 0.0)",0.105332,0.010171,-0.446396,"(0.0, 0.0, 0.0, 0.0, 0.0, 0.0, 0.0, 0.0, 0.0)",2.998,-0.983,-9.803,"(0.0, 0.0, 0.0, 0.0, 0.0, 0.0, 0.0, 0.0, 0.0)",0,0,0,,0.0688,-0.1344,0.3629,"(0.0, 0.0, 0.0, 0.0, 0.0, 0.0, 0.0, 0.0, 0.0)",-0.825,10.643,49.386,"$VNYMR,+049.386,+010.643,-000.825,+00.0688,-00.1344,+00.3629,+02.998,-00.983,-09.803,+00.105332,+00.010171,-00.446396*6D
"
1667362683.8897521,0,1667362683,889409542,IMU1_Frame,0,0,0,,-0.04459444361572392,0.08174636329040758,0.41141997381200596,0.9066766087398113,"(0.0, 0.0, 0.0, 0.0, 0.0, 0.0, 0.0, 0.0, 0.0)",0.108983,0.011158,-0.445187,"(0.0, 0.0, 0.0, 0.0, 0.0, 0.0, 0.0, 0.0, 0.0)",2.865,-1.098,-9.45,"(0.0, 0.0, 0.0, 0.0, 0.0, 0.0, 0.0, 0.0, 0.0)",0,0,0,,0.0753,-0.1356,0.3599,"(0.0, 0.0, 0.0, 0.0, 0.0, 0.0, 0.0, 0.0, 0.0)",-0.793,10.657,48.74,"$VNYMR,+048.740,+010.657,-000.793,+00.0753,-00.1356,+00.3599,+02.865,-01.098,-09.450,+00.108983,+00.011158,-00.445187*64
"
1667362683.9337647,0,1667362683,914429187,IMU1_Frame,0,0,0,,-0.043877001094934615,0.08219667991716255,0.40625007351562975,0.9089991157058713,"(0.0, 0.0, 0.0, 0.0, 0.0, 0.0, 0.0, 0.0, 0.0)",0.108898,0.015622,-0.445223,"(0.0, 0.0, 0.0, 0.0, 0.0, 0.0, 0.0, 0.0, 0.0)",2.841,-1.322,-9.451,"(0.0, 0.0, 0.0, 0.0, 0.0, 0.0, 0.0, 0.0, 0.0)",0,0,0,,0.0707,-0.1325,0.3618,"(0.0, 0.0, 0.0, 0.0, 0.0, 0.0, 0.0, 0.0, 0.0)",-0.757,10.666,48.091,"$VNYMR,+048.091,+010.666,-000.757,+00.0707,-00.1325,+00.3618,+02.841,-01.322,-09.451,+00.108898,+00.015622,-00.445223*67
"
1667362683.9770994,0,1667362683,939272403,IMU1_Frame,0,0,0,,-0.04317093447617548,0.08270142522963178,0.40104841353772963,0.9112940879212987,"(0.0, 0.0, 0.0, 0.0, 0.0, 0.0, 0.0, 0.0, 0.0)",0.111851,0.027692,-0.451872,"(0.0, 0.0, 0.0, 0.0, 0.0, 0.0, 0.0, 0.0, 0.0)",3.032,-1.33,-9.724,"(0.0, 0.0, 0.0, 0.0, 0.0, 0.0, 0.0, 0.0, 0.0)",0,0,0,,0.0698,-0.1245,0.3617,"(0.0, 0.0, 0.0, 0.0, 0.0, 0.0, 0.0, 0.0, 0.0)",-0.72,10.682,47.44,"$VNYMR,+047.440,+010.682,-000.720,+00.0698,-00.1245,+00.3617,+03.032,-01.330,-09.724,+00.111851,+00.027692,-00.451872*66
"
1667362683.9771287,0,1667362683,964532136,IMU1_Frame,0,0,0,,-0.0424741269203774,0.08312878672333276,0.395815296980955,0.913573097259402,"(0.0, 0.0, 0.0, 0.0, 0.0, 0.0, 0.0, 0.0, 0.0)",0.106547,0.007788,-0.451176,"(0.0, 0.0, 0.0, 0.0, 0.0, 0.0, 0.0, 0.0, 0.0)",2.505,-1.409,-9.073,"(0.0, 0.0, 0.0, 0.0, 0.0, 0.0, 0.0, 0.0, 0.0)",0,0,0,,0.0755,-0.1257,0.3653,"(0.0, 0.0, 0.0, 0.0, 0.0, 0.0, 0.0, 0.0, 0.0)",-0.688,10.691,46.786,"$VNYMR,+046.786,+010.691,-000.688,+00.0755,-00.1257,+00.3653,+02.505,-01.409,-09.073,+00.106547,+00.007788,-00.451176*6D
"
1667362684.0206435,0,1667362683,989123582,IMU1_Frame,0,0,0,,-0.041762640906490955,0.08348009144024336,0.3905727980523295,0.9158274103668324,"(0.0, 0.0, 0.0, 0.0, 0.0, 0.0, 0.0, 0.0, 0.0)",0.106547,-0.008289,-0.444719,"(0.0, 0.0, 0.0, 0.0, 0.0, 0.0, 0.0, 0.0, 0.0)",2.661,-1.445,-9.09,"(0.0, 0.0, 0.0, 0.0, 0.0, 0.0, 0.0, 0.0, 0.0)",0,0,0,,0.0766,-0.1138,0.3663,"(0.0, 0.0, 0.0, 0.0, 0.0, 0.0, 0.0, 0.0, 0.0)",-0.658,10.692,46.132,"$VNYMR,+046.132,+010.692,-000.658,+00.0766,-00.1138,+00.3663,+02.661,-01.445,-09.090,+00.106547,-00.008289,-00.444719*61
"
1667362684.0206661,0,1667362684,14104604,IMU1_Frame,0,0,0,,-0.04103703938722359,0.0838969602517973,0.3852805624022782,0.9180610816791135,"(0.0, 0.0, 0.0, 0.0, 0.0, 0.0, 0.0, 0.0, 0.0)",0.107385,0.013131,-0.454567,"(0.0, 0.0, 0.0, 0.0, 0.0, 0.0, 0.0, 0.0, 0.0)",2.81,-1.166,-9.402,"(0.0, 0.0, 0.0, 0.0, 0.0, 0.0, 0.0, 0.0, 0.0)",0,0,0,,0.0774,-0.1198,0.3554,"(0.0, 0.0, 0.0, 0.0, 0.0, 0.0, 0.0, 0.0, 0.0)",-0.624,10.7,45.474,"$VNYMR,+045.474,+010.700,-000.624,+00.0774,-00.1198,+00.3554,+02.810,-01.166,-09.402,+00.107385,+00.013131,-00.454567*66
"
1667362684.0637674,0,1667362684,38908958,IMU1_Frame,0,0,0,,-0.04026214462896841,0.08422387774300523,0.3799616410957059,0.9202795496063494,"(0.0, 0.0, 0.0, 0.0, 0.0, 0.0, 0.0, 0.0, 0.0)",0.108413,-0.00323,-0.45386,"(0.0, 0.0, 0.0, 0.0, 0.0, 0.0, 0.0, 0.0, 0.0)",2.735,-1.532,-8.889,"(0.0, 0.0, 0.0, 0.0, 0.0, 0.0, 0.0, 0.0, 0.0)",0,0,0,,0.0775,-0.1138,0.3586,"(0.0, 0.0, 0.0, 0.0, 0.0, 0.0, 0.0, 0.0, 0.0)",-0.589,10.697,44.814,"$VNYMR,+044.814,+010.697,-000.589,+00.0775,-00.1138,+00.3586,+02.735,-01.532,-08.889,+00.108413,-00.003230,-00.453860*6E
"
1667362684.064282,0,1667362684,63956022,IMU1_Frame,0,0,0,,-0.03949021723102734,0.08446748496792858,0.3746269576276722,0.922475153781864,"(0.0, 0.0, 0.0, 0.0, 0.0, 0.0, 0.0, 0.0, 0.0)",0.102612,-0.015459,-0.450455,"(0.0, 0.0, 0.0, 0.0, 0.0, 0.0, 0.0, 0.0, 0.0)",2.751,-1.48,-8.814,"(0.0, 0.0, 0.0, 0.0, 0.0, 0.0, 0.0, 0.0, 0.0)",0,0,0,,0.0775,-0.1148,0.3631,"(0.0, 0.0, 0.0, 0.0, 0.0, 0.0, 0.0, 0.0, 0.0)",-0.558,10.686,44.153,"$VNYMR,+044.153,+010.686,-000.558,+00.0775,-00.1148,+00.3631,+02.751,-01.480,-08.814,+00.102612,-00.015459,-00.450455*60
"
1667362684.1071522,0,1667362684,88791847,IMU1_Frame,0,0,0,,-0.038764754865879804,0.08469541111076931,0.36924343146162036,0.9246530535500402,"(0.0, 0.0, 0.0, 0.0, 0.0, 0.0, 0.0, 0.0, 0.0)",0.101235,0.002026,-0.458953,"(0.0, 0.0, 0.0, 0.0, 0.0, 0.0, 0.0, 0.0, 0.0)",3.023,-1.336,-9.205,"(0.0, 0.0, 0.0, 0.0, 0.0, 0.0, 0.0, 0.0, 0.0)",0,0,0,,0.0794,-0.1129,0.3576,"(0.0, 0.0, 0.0, 0.0, 0.0, 0.0, 0.0, 0.0, 0.0)",-0.533,10.676,43.487,"$VNYMR,+043.487,+010.676,-000.533,+00.0794,-00.1129,+00.3576,+03.023,-01.336,-09.205,+00.101235,+00.002026,-00.458953*6E
"
1667362684.1506083,0,1667362684,113783121,IMU1_Frame,0,0,0,,-0.03804801653178992,0.0847832565228513,0.3638318161327881,0.9268174347847012,"(0.0, 0.0, 0.0, 0.0, 0.0, 0.0, 0.0, 0.0, 0.0)",0.099526,-0.016601,-0.459571,"(0.0, 0.0, 0.0, 0.0, 0.0, 0.0, 0.0, 0.0, 0.0)",3.047,-1.614,-8.992,"(0.0, 0.0, 0.0, 0.0, 0.0, 0.0, 0.0, 0.0, 0.0)",0,0,0,,0.0822,-0.11,0.361,"(0.0, 0.0, 0.0, 0.0, 0.0, 0.0, 0.0, 0.0, 0.0)",-0.515,10.652,42.818,"$VNYMR,+042.818,+010.652,-000.515,+00.0822,-00.1100,+00.3610,+03.047,-01.614,-08.992,+00.099526,-00.016601,-00.459571*66
"
1667362684.1506348,0,1667362684,138670444,IMU1_Frame,0,0,0,,-0.03735910464040223,0.0847897641204832,0.3584218852551664,0.9289503460201695,"(0.0, 0.0, 0.0, 0.0, 0.0, 0.0, 0.0, 0.0, 0.0)",0.093495,-0.022539,-0.45798,"(0.0, 0.0, 0.0, 0.0, 0.0, 0.0, 0.0, 0.0, 0.0)",2.614,-1.474,-8.921,"(0.0, 0.0, 0.0, 0.0, 0.0, 0.0, 0.0, 0.0, 0.0)",0,0,0,,0.0842,-0.107,0.3633,"(0.0, 0.0, 0.0, 0.0, 0.0, 0.0, 0.0, 0.0, 0.0)",-0.503,10.621,42.15,"$VNYMR,+042.150,+010.621,-000.503,+00.0842,-00.1070,+00.3633,+02.614,-01.474,-08.921,+00.093495,-00.022539,-00.457980*6C
"
1667362684.1937742,0,1667362684,164427757,IMU1_Frame,0,0,0,,-0.036688919345585776,0.08471006027871615,0.35302142275071513,0.93104994708334,"(0.0, 0.0, 0.0, 0.0, 0.0, 0.0, 0.0, 0.0, 0.0)",0.090494,-0.023083,-0.458563,"(0.0, 0.0, 0.0, 0.0, 0.0, 0.0, 0.0, 0.0, 0.0)",2.731,-1.416,-8.967,"(0.0, 0.0, 0.0, 0.0, 0.0, 0.0, 0.0, 0.0, 0.0)",0,0,0,,0.0794,-0.1039,0.3553,"(0.0, 0.0, 0.0, 0.0, 0.0, 0.0, 0.0, 0.0, 0.0)",-0.496,10.582,41.484,"$VNYMR,+041.484,+010.582,-000.496,+00.0794,-00.1039,+00.3553,+02.731,-01.416,-08.967,+00.090494,-00.023083,-00.458563*61
"
1667362684.1937954,0,1667362684,189375638,IMU1_Frame,0,0,0,,-0.03608431319631544,0.08456460372015051,0.34764070975636846,0.9331091506672158,"(0.0, 0.0, 0.0, 0.0, 0.0, 0.0, 0.0, 0.0, 0.0)",0.081005,-0.029867,-0.458018,"(0.0, 0.0, 0.0, 0.0, 0.0, 0.0, 0.0, 0.0, 0.0)",2.762,-1.683,-9.19,"(0.0, 0.0, 0.0, 0.0, 0.0, 0.0, 0.0, 0.0, 0.0)",0,0,0,,0.0795,-0.1009,0.363,"(0.0, 0.0, 0.0, 0.0, 0.0, 0.0, 0.0, 0.0, 0.0)",-0.498,10.539,40.821,"$VNYMR,+040.821,+010.539,-000.498,+00.0795,-00.1009,+00.3630,+02.762,-01.683,-09.190,+00.081005,-00.029867,-00.458018*6D
"
1667362684.2370956,0,1667362684,214305162,IMU1_Frame,0,0,0,,-0.03563319911115273,0.08437805042603833,0.3423252537571813,0.9351064326414866,"(0.0, 0.0, 0.0, 0.0, 0.0, 0.0, 0.0, 0.0, 0.0)",0.063392,-0.023855,-0.444856,"(0.0, 0.0, 0.0, 0.0, 0.0, 0.0, 0.0, 0.0, 0.0)",2.863,-1.53,-9.153,"(0.0, 0.0, 0.0, 0.0, 0.0, 0.0, 0.0, 0.0, 0.0)",0,0,0,,0.0804,-0.1069,0.3576,"(0.0, 0.0, 0.0, 0.0, 0.0, 0.0, 0.0, 0.0, 0.0)",-0.517,10.498,40.166,"$VNYMR,+040.166,+010.498,-000.517,+00.0804,-00.1069,+00.3576,+02.863,-01.530,-09.153,+00.063392,-00.023855,-00.444856*64
"
1667362684.2395408,0,1667362684,239216566,IMU1_Frame,0,0,0,,-0.035272937341972524,0.08419442809373899,0.3370283825025109,0.9370586894944087,"(0.0, 0.0, 0.0, 0.0, 0.0, 0.0, 0.0, 0.0, 0.0)",0.064521,-0.019331,-0.450988,"(0.0, 0.0, 0.0, 0.0, 0.0, 0.0, 0.0, 0.0, 0.0)",2.935,-1.481,-9.725,"(0.0, 0.0, 0.0, 0.0, 0.0, 0.0, 0.0, 0.0, 0.0)",0,0,0,,0.0814,-0.101,0.3576,"(0.0, 0.0, 0.0, 0.0, 0.0, 0.0, 0.0, 0.0, 0.0)",-0.545,10.461,39.514,"$VNYMR,+039.514,+010.461,-000.545,+00.0814,-00.1010,+00.3576,+02.935,-01.481,-09.725,+00.064521,-00.019331,-00.450988*65
"
1667362684.2804115,0,1667362684,264198541,IMU1_Frame,0,0,0,,-0.03501143883988842,0.08402130777858363,0.3318076002575838,0.93894533142289,"(0.0, 0.0, 0.0, 0.0, 0.0, 0.0, 0.0, 0.0, 0.0)",0.046711,-0.022559,-0.435602,"(0.0, 0.0, 0.0, 0.0, 0.0, 0.0, 0.0, 0.0, 0.0)",2.732,-1.276,-9.404,"(0.0, 0.0, 0.0, 0.0, 0.0, 0.0, 0.0, 0.0, 0.0)",0,0,0,,0.0825,-0.0861,0.3553,"(0.0, 0.0, 0.0, 0.0, 0.0, 0.0, 0.0, 0.0, 0.0)",-0.582,10.429,38.872,"$VNYMR,+038.872,+010.429,-000.582,+00.0825,-00.0861,+00.3553,+02.732,-01.276,-09.404,+00.046711,-00.022559,-00.435602*6C
"
1667362684.3237092,0,1667362684,288999080,IMU1_Frame,0,0,0,,-0.03474801141889393,0.08392287148416454,0.32662884945169535,0.9407779345042838,"(0.0, 0.0, 0.0, 0.0, 0.0, 0.0, 0.0, 0.0, 0.0)",0.053258,-0.011531,-0.434724,"(0.0, 0.0, 0.0, 0.0, 0.0, 0.0, 0.0, 0.0, 0.0)",2.719,-1.353,-9.544,"(0.0, 0.0, 0.0, 0.0, 0.0, 0.0, 0.0, 0.0, 0.0)",0,0,0,,0.0805,-0.096,0.3619,"(0.0, 0.0, 0.0, 0.0, 0.0, 0.0, 0.0, 0.0, 0.0)",-0.615,10.405,38.237,"$VNYMR,+038.237,+010.405,-000.615,+00.0805,-00.0960,+00.3619,+02.719,-01.353,-09.544,+00.053258,-00.011531,-00.434724*67
"
1667362684.3237338,0,1667362684,314020395,IMU1_Frame,0,0,0,,-0.03450013193777444,0.08385610169689586,0.3214636665294518,0.9425704250643119,"(0.0, 0.0, 0.0, 0.0, 0.0, 0.0, 0.0, 0.0, 0.0)",0.060234,-0.011614,-0.435064,"(0.0, 0.0, 0.0, 0.0, 0.0, 0.0, 0.0, 0.0, 0.0)",2.993,-1.197,-9.805,"(0.0, 0.0, 0.0, 0.0, 0.0, 0.0, 0.0, 0.0, 0.0)",0,0,0,,0.0824,-0.097,0.3565,"(0.0, 0.0, 0.0, 0.0, 0.0, 0.0, 0.0, 0.0, 0.0)",-0.648,10.385,37.605,"$VNYMR,+037.605,+010.385,-000.648,+00.0824,-00.0970,+00.3565,+02.993,-01.197,-09.805,+00.060234,-00.011614,-00.435064*62
"
1667362684.3670497,0,1667362684,338837385,IMU1_Frame,0,0,0,,-0.03432419778531816,0.08380220157942128,0.3163093127249549,0.9443238105333907,"(0.0, 0.0, 0.0, 0.0, 0.0, 0.0, 0.0, 0.0, 0.0)",0.047173,-0.007486,-0.435277,"(0.0, 0.0, 0.0, 0.0, 0.0, 0.0, 0.0, 0.0, 0.0)",2.546,-1.732,-9.537,"(0.0, 0.0, 0.0, 0.0, 0.0, 0.0, 0.0, 0.0, 0.0)",0,0,0,,0.0796,-0.089,0.3585,"(0.0, 0.0, 0.0, 0.0, 0.0, 0.0, 0.0, 0.0, 0.0)",-0.688,10.369,36.975,"$VNYMR,+036.975,+010.369,-000.688,+00.0796,-00.0890,+00.3585,+02.546,-01.732,-09.537,+00.047173,-00.007486,-00.435277*68
"
1667362684.367077,0,1667362684,363845109,IMU1_Frame,0,0,0,,-0.03428461586900038,0.0836956724079191,0.31112484821340675,0.946055457338039,"(0.0, 0.0, 0.0, 0.0, 0.0, 0.0, 0.0, 0.0, 0.0)",0.036022,-0.005679,-0.435475,"(0.0, 0.0, 0.0, 0.0, 0.0, 0.0, 0.0, 0.0, 0.0)",3.073,-1.284,-9.574,"(0.0, 0.0, 0.0, 0.0, 0.0, 0.0, 0.0, 0.0, 0.0)",0,0,0,,0.0787,-0.089,0.3629,"(0.0, 0.0, 0.0, 0.0, 0.0, 0.0, 0.0, 0.0, 0.0)",-0.745,10.352,36.341,"$VNYMR,+036.341,+010.352,-000.745,+00.0787,-00.0890,+00.3629,+03.073,-01.284,-09.574,+00.036022,-00.005679,-00.435475*62
"
1667362684.4103947,0,1667362684,388751268,IMU1_Frame,0,0,0,,-0.034364457730982005,0.0835813982915453,0.3058659079892752,0.9477759652124451,"(0.0, 0.0, 0.0, 0.0, 0.0, 0.0, 0.0, 0.0, 0.0)",0.022076,0.009554,-0.44297,"(0.0, 0.0, 0.0, 0.0, 0.0, 0.0, 0.0, 0.0, 0.0)",2.881,-1.08,-9.857,"(0.0, 0.0, 0.0, 0.0, 0.0, 0.0, 0.0, 0.0, 0.0)",0,0,0,,0.0806,-0.085,0.3585,"(0.0, 0.0, 0.0, 0.0, 0.0, 0.0, 0.0, 0.0, 0.0)",-0.816,10.338,35.698,"$VNYMR,+035.698,+010.338,-000.816,+00.0806,-00.0850,+00.3585,+02.881,-01.080,-09.857,+00.022076,+00.009554,-00.442970*6E
"
1667362684.4140592,0,1667362684,413701295,IMU1_Frame,0,0,0,,-0.03442911219062553,0.08337562063424245,0.30063295447049776,0.9494645695358831,"(0.0, 0.0, 0.0, 0.0, 0.0, 0.0, 0.0, 0.0, 0.0)",0.028118,-0.015096,-0.438329,"(0.0, 0.0, 0.0, 0.0, 0.0, 0.0, 0.0, 0.0, 0.0)",2.418,-1.219,-9.402,"(0.0, 0.0, 0.0, 0.0, 0.0, 0.0, 0.0, 0.0, 0.0)",0,0,0,,0.0815,-0.0851,0.3574,"(0.0, 0.0, 0.0, 0.0, 0.0, 0.0, 0.0, 0.0, 0.0)",-0.888,10.313,35.059,"$VNYMR,+035.059,+010.313,-000.888,+00.0815,-00.0851,+00.3574,+02.418,-01.219,-09.402,+00.028118,-00.015096,-00.438329*6C
"
1667362684.457093,0,1667362684,439444541,IMU1_Frame,0,0,0,,-0.034459251795755305,0.08318451837821775,0.2954281573480143,0.9511125589086802,"(0.0, 0.0, 0.0, 0.0, 0.0, 0.0, 0.0, 0.0, 0.0)",0.036506,-0.017718,-0.433874,"(0.0, 0.0, 0.0, 0.0, 0.0, 0.0, 0.0, 0.0, 0.0)",2.792,-0.882,-9.509,"(0.0, 0.0, 0.0, 0.0, 0.0, 0.0, 0.0, 0.0, 0.0)",0,0,0,,0.0788,-0.078,0.3639,"(0.0, 0.0, 0.0, 0.0, 0.0, 0.0, 0.0, 0.0, 0.0)",-0.955,10.288,34.425,"$VNYMR,+034.425,+010.288,-000.955,+00.0788,-00.0780,+00.3639,+02.792,-00.882,-09.509,+00.036506,-00.017718,-00.433874*6F
"
1667362684.5004609,0,1667362684,464419841,IMU1_Frame,0,0,0,,-0.034445220139583316,0.08300104963265838,0.2902679751464195,0.9527165660225554,"(0.0, 0.0, 0.0, 0.0, 0.0, 0.0, 0.0, 0.0, 0.0)",0.043311,-0.01613,-0.432961,"(0.0, 0.0, 0.0, 0.0, 0.0, 0.0, 0.0, 0.0, 0.0)",2.456,-0.738,-9.496,"(0.0, 0.0, 0.0, 0.0, 0.0, 0.0, 0.0, 0.0, 0.0)",0,0,0,,0.0807,-0.0781,0.3595,"(0.0, 0.0, 0.0, 0.0, 0.0, 0.0, 0.0, 0.0, 0.0)",-1.016,10.262,33.798,"$VNYMR,+033.798,+010.262,-001.016,+00.0807,-00.0781,+00.3595,+02.456,-00.738,-09.496,+00.043311,-00.016130,-00.432961*63
"
1667362684.500492,0,1667362684,489331007,IMU1_Frame,0,0,0,,-0.03439262559363529,0.08282199127508462,0.2852194791374562,0.9542575720352257,"(0.0, 0.0, 0.0, 0.0, 0.0, 0.0, 0.0, 0.0, 0.0)",0.038546,-0.007162,-0.41735,"(0.0, 0.0, 0.0, 0.0, 0.0, 0.0, 0.0, 0.0, 0.0)",2.536,-0.854,-9.602,"(0.0, 0.0, 0.0, 0.0, 0.0, 0.0, 0.0, 0.0, 0.0)",0,0,0,,0.0788,-0.076,0.3605,"(0.0, 0.0, 0.0, 0.0, 0.0, 0.0, 0.0, 0.0, 0.0)",-1.071,10.235,33.186,"$VNYMR,+033.186,+010.235,-001.071,+00.0788,-00.0760,+00.3605,+02.536,-00.854,-09.602,+00.038546,-00.007162,-00.417350*69
"
1667362684.5439832,0,1667362684,514243364,IMU1_Frame,0,0,0,,-0.0343356199239722,0.08264571656148502,0.28026948946110014,0.9557404271117181,"(0.0, 0.0, 0.0, 0.0, 0.0, 0.0, 0.0, 0.0, 0.0)",0.036544,-0.019282,-0.407535,"(0.0, 0.0, 0.0, 0.0, 0.0, 0.0, 0.0, 0.0, 0.0)",2.806,-0.471,-9.463,"(0.0, 0.0, 0.0, 0.0, 0.0, 0.0, 0.0, 0.0, 0.0)",0,0,0,,0.0807,-0.0751,0.3639,"(0.0, 0.0, 0.0, 0.0, 0.0, 0.0, 0.0, 0.0, 0.0)",-1.124,10.208,32.587,"$VNYMR,+032.587,+010.208,-001.124,+00.0807,-00.0751,+00.3639,+02.806,-00.471,-09.463,+00.036544,-00.019282,-00.407535*6D
"
1667362684.5440102,0,1667362684,539140939,IMU1_Frame,0,0,0,,-0.03424515600158851,0.08236246929377744,0.27544537383080664,0.9571695455756339,"(0.0, 0.0, 0.0, 0.0, 0.0, 0.0, 0.0, 0.0, 0.0)",0.035522,-0.020671,-0.401969,"(0.0, 0.0, 0.0, 0.0, 0.0, 0.0, 0.0, 0.0, 0.0)",2.897,-0.673,-9.813,"(0.0, 0.0, 0.0, 0.0, 0.0, 0.0, 0.0, 0.0, 0.0)",0,0,0,,0.0769,-0.075,0.3549,"(0.0, 0.0, 0.0, 0.0, 0.0, 0.0, 0.0, 0.0, 0.0)",-1.175,10.168,32.004,"$VNYMR,+032.004,+010.168,-001.175,+00.0769,-00.0750,+00.3549,+02.897,-00.673,-09.813,+00.035522,-00.020671,-00.401969*61
"
1667362684.587085,0,1667362684,564208030,IMU1_Frame,0,0,0,,-0.03417746922477719,0.08194726389267651,0.2707359370715594,0.9585502589410105,"(0.0, 0.0, 0.0, 0.0, 0.0, 0.0, 0.0, 0.0, 0.0)",0.022862,-0.036043,-0.384477,"(0.0, 0.0, 0.0, 0.0, 0.0, 0.0, 0.0, 0.0, 0.0)",2.347,-0.625,-9.313,"(0.0, 0.0, 0.0, 0.0, 0.0, 0.0, 0.0, 0.0, 0.0)",0,0,0,,0.0818,-0.0662,0.365,"(0.0, 0.0, 0.0, 0.0, 0.0, 0.0, 0.0, 0.0, 0.0)",-1.231,10.114,31.435,"$VNYMR,+031.435,+010.114,-001.231,+00.0818,-00.0662,+00.3650,+02.347,-00.625,-09.313,+00.022862,-00.036043,-00.384477*67
"
1667362684.5893466,0,1667362684,588966369,IMU1_Frame,0,0,0,,-0.03403458409812137,0.0815177312137776,0.2661631179958087,0.9598717108039884,"(0.0, 0.0, 0.0, 0.0, 0.0, 0.0, 0.0, 0.0, 0.0)",0.032996,-0.030988,-0.372614,"(0.0, 0.0, 0.0, 0.0, 0.0, 0.0, 0.0, 0.0, 0.0)",2.523,-0.332,-9.566,"(0.0, 0.0, 0.0, 0.0, 0.0, 0.0, 0.0, 0.0, 0.0)",0,0,0,,0.077,-0.071,0.3604,"(0.0, 0.0, 0.0, 0.0, 0.0, 0.0, 0.0, 0.0, 0.0)",-1.277,10.056,30.884,"$VNYMR,+030.884,+010.056,-001.277,+00.0770,-00.0710,+00.3604,+02.523,-00.332,-09.566,+00.032996,-00.030988,-00.372614*6F
"
1667362684.6304033,0,1667362684,613977909,IMU1_Frame,0,0,0,,-0.03384165182198138,0.08118350867800132,0.2616759980700743,0.961139767440053,"(0.0, 0.0, 0.0, 0.0, 0.0, 0.0, 0.0, 0.0, 0.0)",0.049229,-0.028245,-0.371675,"(0.0, 0.0, 0.0, 0.0, 0.0, 0.0, 0.0, 0.0, 0.0)",2.396,-0.459,-9.671,"(0.0, 0.0, 0.0, 0.0, 0.0, 0.0, 0.0, 0.0, 0.0)",0,0,0,,0.077,-0.073,0.3604,"(0.0, 0.0, 0.0, 0.0, 0.0, 0.0, 0.0, 0.0, 0.0)",-1.313,10.007,30.345,"$VNYMR,+030.345,+010.007,-001.313,+00.0770,-00.0730,+00.3604,+02.396,-00.459,-09.671,+00.049229,-00.028245,-00.371675*6F
"
1667362684.6737316,0,1667362684,638746976,IMU1_Frame,0,0,0,,-0.033647848428734965,0.08094762940375795,0.2573290853728238,0.9623393608344276,"(0.0, 0.0, 0.0, 0.0, 0.0, 0.0, 0.0, 0.0, 0.0)",0.048786,-0.016247,-0.355704,"(0.0, 0.0, 0.0, 0.0, 0.0, 0.0, 0.0, 0.0, 0.0)",2.365,-0.613,-9.591,"(0.0, 0.0, 0.0, 0.0, 0.0, 0.0, 0.0, 0.0, 0.0)",0,0,0,,0.0799,-0.0641,0.3638,"(0.0, 0.0, 0.0, 0.0, 0.0, 0.0, 0.0, 0.0, 0.0)",-1.344,9.969,29.824,"$VNYMR,+029.824,+009.969,-001.344,+00.0799,-00.0641,+00.3638,+02.365,-00.613,-09.591,+00.048786,-00.016247,-00.355704*6D
"
1667362684.6737554,0,1667362684,663775682,IMU1_Frame,0,0,0,,-0.03343497392316884,0.08083297653176073,0.2530712405794566,0.9634848621620101,"(0.0, 0.0, 0.0, 0.0, 0.0, 0.0, 0.0, 0.0, 0.0)",0.043449,-0.003758,-0.346124,"(0.0, 0.0, 0.0, 0.0, 0.0, 0.0, 0.0, 0.0, 0.0)",2.48,-0.337,-9.612,"(0.0, 0.0, 0.0, 0.0, 0.0, 0.0, 0.0, 0.0, 0.0)",0,0,0,,0.0828,-0.0602,0.3594,"(0.0, 0.0, 0.0, 0.0, 0.0, 0.0, 0.0, 0.0, 0.0)",-1.368,9.944,29.315,"$VNYMR,+029.315,+009.944,-001.368,+00.0828,-00.0602,+00.3594,+02.480,-00.337,-09.612,+00.043449,-00.003758,-00.346124*67
"
1667362684.7170413,0,1667362684,688654184,IMU1_Frame,0,0,0,,-0.03315957705159198,0.08078737955245413,0.24888480062847923,0.9645880974648864,"(0.0, 0.0, 0.0, 0.0, 0.0, 0.0, 0.0, 0.0, 0.0)",0.050652,-0.00202,-0.341111,"(0.0, 0.0, 0.0, 0.0, 0.0, 0.0, 0.0, 0.0, 0.0)",2.694,-0.527,-9.695,"(0.0, 0.0, 0.0, 0.0, 0.0, 0.0, 0.0, 0.0, 0.0)",0,0,0,,0.0761,-0.064,0.3525,"(0.0, 0.0, 0.0, 0.0, 0.0, 0.0, 0.0, 0.0, 0.0)",-1.382,9.925,28.816,"$VNYMR,+028.816,+009.925,-001.382,+00.0761,-00.0640,+00.3525,+02.694,-00.527,-09.695,+00.050652,-00.002020,-00.341111*6E
"
1667362684.7170708,0,1667362684,714739084,IMU1_Frame,0,0,0,,-0.03290703955632435,0.08076120466078437,0.24477823121698092,0.9656491972200172,"(0.0, 0.0, 0.0, 0.0, 0.0, 0.0, 0.0, 0.0, 0.0)",0.042369,-0.005196,-0.329196,"(0.0, 0.0, 0.0, 0.0, 0.0, 0.0, 0.0, 0.0, 0.0)",2.301,-0.64,-9.513,"(0.0, 0.0, 0.0, 0.0, 0.0, 0.0, 0.0, 0.0, 0.0)",0,0,0,,0.0789,-0.0661,0.3582,"(0.0, 0.0, 0.0, 0.0, 0.0, 0.0, 0.0, 0.0, 0.0)",-1.397,9.909,28.327,"$VNYMR,+028.327,+009.909,-001.397,+00.0789,-00.0661,+00.3582,+02.301,-00.640,-09.513,+00.042369,-00.005196,-00.329196*67
"
1667362684.7603962,0,1667362684,739329576,IMU1_Frame,0,0,0,,-0.03266364892973404,0.08077608256485261,0.24074192619668264,0.9666703861685131,"(0.0, 0.0, 0.0, 0.0, 0.0, 0.0, 0.0, 0.0, 0.0)",0.050941,-0.00773,-0.326906,"(0.0, 0.0, 0.0, 0.0, 0.0, 0.0, 0.0, 0.0, 0.0)",2.729,-0.299,-9.444,"(0.0, 0.0, 0.0, 0.0, 0.0, 0.0, 0.0, 0.0, 0.0)",0,0,0,,0.0752,-0.062,0.3558,"(0.0, 0.0, 0.0, 0.0, 0.0, 0.0, 0.0, 0.0, 0.0)",-1.411,9.898,27.847,"$VNYMR,+027.847,+009.898,-001.411,+00.0752,-00.0620,+00.3558,+02.729,-00.299,-09.444,+00.050941,-00.007730,-00.326906*69
"
1667362684.765016,0,1667362684,764628171,IMU1_Frame,0,0,0,,-0.032404155870708065,0.0808473153011789,0.23675718423596934,0.9676568183005553,"(0.0, 0.0, 0.0, 0.0, 0.0, 0.0, 0.0, 0.0, 0.0)",0.05162,0.007703,-0.325264,"(0.0, 0.0, 0.0, 0.0, 0.0, 0.0, 0.0, 0.0, 0.0)",2.649,-0.585,-9.793,"(0.0, 0.0, 0.0, 0.0, 0.0, 0.0, 0.0, 0.0, 0.0)",0,0,0,,0.0761,-0.0561,0.3491,"(0.0, 0.0, 0.0, 0.0, 0.0, 0.0, 0.0, 0.0, 0.0)",-1.421,9.893,27.374,"$VNYMR,+027.374,+009.893,-001.421,+00.0761,-00.0561,+00.3491,+02.649,-00.585,-09.793,+00.051620,+00.007703,-00.325264*6F
"
1667362684.807094,0,1667362684,789208650,IMU1_Frame,0,0,0,,-0.03215611683417749,0.08089603070635742,0.23285376338971508,0.968607733420165,"(0.0, 0.0, 0.0, 0.0, 0.0, 0.0, 0.0, 0.0, 0.0)",0.039232,0.002695,-0.314281,"(0.0, 0.0, 0.0, 0.0, 0.0, 0.0, 0.0, 0.0, 0.0)",2.719,-0.628,-9.394,"(0.0, 0.0, 0.0, 0.0, 0.0, 0.0, 0.0, 0.0, 0.0)",0,0,0,,0.0714,-0.0609,0.3556,"(0.0, 0.0, 0.0, 0.0, 0.0, 0.0, 0.0, 0.0, 0.0)",-1.432,9.886,26.911,"$VNYMR,+026.911,+009.886,-001.432,+00.0714,-00.0609,+00.3556,+02.719,-00.628,-09.394,+00.039232,+00.002695,-00.314281*6C
"
1667362684.8505952,0,1667362684,814187765,IMU1_Frame,0,0,0,,-0.031961967477686454,0.08096653820868627,0.22899208460700943,0.9695284820534119,"(0.0, 0.0, 0.0, 0.0, 0.0, 0.0, 0.0, 0.0, 0.0)",0.035789,0.010858,-0.312757,"(0.0, 0.0, 0.0, 0.0, 0.0, 0.0, 0.0, 0.0, 0.0)",2.705,-0.396,-9.399,"(0.0, 0.0, 0.0, 0.0, 0.0, 0.0, 0.0, 0.0, 0.0)",0,0,0,,0.0667,-0.0578,0.3487,"(0.0, 0.0, 0.0, 0.0, 0.0, 0.0, 0.0, 0.0, 0.0)",-1.448,9.883,26.453,"$VNYMR,+026.453,+009.883,-001.448,+00.0667,-00.0578,+00.3487,+02.705,-00.396,-09.399,+00.035789,+00.010858,-00.312757*6F
"
1667362684.85063,0,1667362684,839371919,IMU1_Frame,0,0,0,,-0.03173687173860919,0.08099865258111542,0.22517574848680763,0.970426644082744,"(0.0, 0.0, 0.0, 0.0, 0.0, 0.0, 0.0, 0.0, 0.0)",0.041476,0.009102,-0.30983,"(0.0, 0.0, 0.0, 0.0, 0.0, 0.0, 0.0, 0.0, 0.0)",2.557,-0.648,-9.534,"(0.0, 0.0, 0.0, 0.0, 0.0, 0.0, 0.0, 0.0, 0.0)",0,0,0,,0.0724,-0.0589,0.3512,"(0.0, 0.0, 0.0, 0.0, 0.0, 0.0, 0.0, 0.0, 0.0)",-1.461,9.875,26.001,"$VNYMR,+026.001,+009.875,-001.461,+00.0724,-00.0589,+00.3512,+02.557,-00.648,-09.534,+00.041476,+00.009102,-00.309830*63
"
1667362684.893731,0,1667362684,864038705,IMU1_Frame,0,0,0,,-0.031459692625988404,0.08095153502369465,0.2214630970894633,0.9712935876163958,"(0.0, 0.0, 0.0, 0.0, 0.0, 0.0, 0.0, 0.0, 0.0)",0.051516,-0.016091,-0.29898,"(0.0, 0.0, 0.0, 0.0, 0.0, 0.0, 0.0, 0.0, 0.0)",2.595,-0.214,-9.285,"(0.0, 0.0, 0.0, 0.0, 0.0, 0.0, 0.0, 0.0, 0.0)",0,0,0,,0.0667,-0.0608,0.3543,"(0.0, 0.0, 0.0, 0.0, 0.0, 0.0, 0.0, 0.0, 0.0)",-1.469,9.857,25.562,"$VNYMR,+025.562,+009.857,-001.469,+00.0667,-00.0608,+00.3543,+02.595,-00.214,-09.285,+00.051516,-00.016091,-00.298980*68
"
1667362684.8937643,0,1667362684,888920307,IMU1_Frame,0,0,0,,-0.03111168614557952,0.0809266286925843,0.21787570040173052,0.9721178544436303,"(0.0, 0.0, 0.0, 0.0, 0.0, 0.0, 0.0, 0.0, 0.0)",0.058282,-0.00947,-0.290014,"(0.0, 0.0, 0.0, 0.0, 0.0, 0.0, 0.0, 0.0, 0.0)",2.709,-0.306,-9.27,"(0.0, 0.0, 0.0, 0.0, 0.0, 0.0, 0.0, 0.0, 0.0)",0,0,0,,0.0743,-0.051,0.3501,"(0.0, 0.0, 0.0, 0.0, 0.0, 0.0, 0.0, 0.0, 0.0)",-1.467,9.84,25.139,"$VNYMR,+025.139,+009.840,-001.467,+00.0743,-00.0510,+00.3501,+02.709,-00.306,-09.270,+00.058282,-00.009470,-00.290014*64
"
1667362684.937076,0,1667362684,913849353,IMU1_Frame,0,0,0,,-0.030797592257511074,0.0809363014392918,0.2143712951276292,0.9729058388383591,"(0.0, 0.0, 0.0, 0.0, 0.0, 0.0, 0.0, 0.0, 0.0)",0.039081,0.001386,-0.278793,"(0.0, 0.0, 0.0, 0.0, 0.0, 0.0, 0.0, 0.0, 0.0)",2.248,-0.779,-9.477,"(0.0, 0.0, 0.0, 0.0, 0.0, 0.0, 0.0, 0.0, 0.0)",0,0,0,,0.0677,-0.0588,0.3554,"(0.0, 0.0, 0.0, 0.0, 0.0, 0.0, 0.0, 0.0, 0.0)",-1.467,9.828,24.726,"$VNYMR,+024.726,+009.828,-001.467,+00.0677,-00.0588,+00.3554,+02.248,-00.779,-09.477,+00.039081,+00.001386,-00.278793*61
"
1667362684.9391124,0,1667362684,938764333,IMU1_Frame,0,0,0,,-0.030641400779380497,0.08091770201514535,0.21101194537094298,0.9736464394068494,"(0.0, 0.0, 0.0, 0.0, 0.0, 0.0, 0.0, 0.0, 0.0)",0.024042,-0.002695,-0.269678,"(0.0, 0.0, 0.0, 0.0, 0.0, 0.0, 0.0, 0.0, 0.0)",2.732,-0.583,-9.32,"(0.0, 0.0, 0.0, 0.0, 0.0, 0.0, 0.0, 0.0, 0.0)",0,0,0,,0.0696,-0.0509,0.351,"(0.0, 0.0, 0.0, 0.0, 0.0, 0.0, 0.0, 0.0, 0.0)",-1.484,9.817,24.329,"$VNYMR,+024.329,+009.817,-001.484,+00.0696,-00.0509,+00.3510,+02.732,-00.583,-09.320,+00.024042,-00.002695,-00.269678*62
"
1667362684.9803984,0,1667362684,963618993,IMU1_Frame,0,0,0,,-0.03068917938627109,0.08090802329833872,0.20773330354335182,0.974350522467925,"(0.0, 0.0, 0.0, 0.0, 0.0, 0.0, 0.0, 0.0, 0.0)",0.02195,-0.002921,-0.26785,"(0.0, 0.0, 0.0, 0.0, 0.0, 0.0, 0.0, 0.0, 0.0)",2.846,-0.383,-9.499,"(0.0, 0.0, 0.0, 0.0, 0.0, 0.0, 0.0, 0.0, 0.0)",0,0,0,,0.0686,-0.0519,0.3476,"(0.0, 0.0, 0.0, 0.0, 0.0, 0.0, 0.0, 0.0, 0.0)",-1.523,9.812,23.94,"$VNYMR,+023.940,+009.812,-001.523,+00.0686,-00.0519,+00.3476,+02.846,-00.383,-09.499,+00.021950,-00.002921,-00.267850*62
"
1667362685.0239635,0,1667362684,989396333,IMU1_Frame,0,0,0,,-0.030827716962948733,0.08090584636278608,0.20456061102047496,0.9750173600044788,"(0.0, 0.0, 0.0, 0.0, 0.0, 0.0, 0.0, 0.0, 0.0)",0.008999,0.005005,-0.253763,"(0.0, 0.0, 0.0, 0.0, 0.0, 0.0, 0.0, 0.0, 0.0)",2.698,-0.123,-9.366,"(0.0, 0.0, 0.0, 0.0, 0.0, 0.0, 0.0, 0.0, 0.0)",0,0,0,,0.0677,-0.0528,0.3587,"(0.0, 0.0, 0.0, 0.0, 0.0, 0.0, 0.0, 0.0, 0.0)",-1.571,9.81,23.563,"$VNYMR,+023.563,+009.810,-001.571,+00.0677,-00.0528,+00.3587,+02.698,-00.123,-09.366,+00.008999,+00.005005,-00.253763*63
"
1667362685.0239923,0,1667362685,14415502,IMU1_Frame,0,0,0,,-0.030853422186334106,0.0809185668991971,0.20146953129900658,0.9756588952233923,"(0.0, 0.0, 0.0, 0.0, 0.0, 0.0, 0.0, 0.0, 0.0)",0.02468,0.008351,-0.247162,"(0.0, 0.0, 0.0, 0.0, 0.0, 0.0, 0.0, 0.0, 0.0)",2.777,-0.176,-9.44,"(0.0, 0.0, 0.0, 0.0, 0.0, 0.0, 0.0, 0.0, 0.0)",0,0,0,,0.0658,-0.0518,0.3486,"(0.0, 0.0, 0.0, 0.0, 0.0, 0.0, 0.0, 0.0, 0.0)",-1.605,9.807,23.197,"$VNYMR,+023.197,+009.807,-001.605,+00.0658,-00.0518,+00.3486,+02.777,-00.176,-09.440,+00.024680,+00.008351,-00.247162*63
"
1667362685.0672078,0,1667362685,39268255,IMU1_Frame,0,0,0,,-0.03070252019998413,0.08096633640453539,0.19848866096046922,0.9762704845956969,"(0.0, 0.0, 0.0, 0.0, 0.0, 0.0, 0.0, 0.0, 0.0)",0.035649,0.004079,-0.237538,"(0.0, 0.0, 0.0, 0.0, 0.0, 0.0, 0.0, 0.0, 0.0)",2.499,-0.384,-9.59,"(0.0, 0.0, 0.0, 0.0, 0.0, 0.0, 0.0, 0.0, 0.0)",0,0,0,,0.063,-0.0467,0.3507,"(0.0, 0.0, 0.0, 0.0, 0.0, 0.0, 0.0, 0.0, 0.0)",-1.617,9.804,22.846,"$VNYMR,+022.846,+009.804,-001.617,+00.0630,-00.0467,+00.3507,+02.499,-00.384,-09.590,+00.035649,+00.004079,-00.237538*64
"
1667362685.0672286,0,1667362685,64537286,IMU1_Frame,0,0,0,,-0.030481160228571974,0.08107125191830336,0.19557545394822243,0.9768564852609956,"(0.0, 0.0, 0.0, 0.0, 0.0, 0.0, 0.0, 0.0, 0.0)",0.03546,0.010406,-0.233291,"(0.0, 0.0, 0.0, 0.0, 0.0, 0.0, 0.0, 0.0, 0.0)",2.399,-0.748,-9.253,"(0.0, 0.0, 0.0, 0.0, 0.0, 0.0, 0.0, 0.0, 0.0)",0,0,0,,0.0622,-0.0417,0.3517,"(0.0, 0.0, 0.0, 0.0, 0.0, 0.0, 0.0, 0.0, 0.0)",-1.619,9.806,22.504,"$VNYMR,+022.504,+009.806,-001.619,+00.0622,-00.0417,+00.3517,+02.399,-00.748,-09.253,+00.035460,+00.010406,-00.233291*6D
"
1667362685.110414,0,1667362685,89160680,IMU1_Frame,0,0,0,,-0.030264428933331065,0.08120116845167248,0.19266044948140923,0.9774315248594366,"(0.0, 0.0, 0.0, 0.0, 0.0, 0.0, 0.0, 0.0, 0.0)",0.038046,0.008526,-0.235123,"(0.0, 0.0, 0.0, 0.0, 0.0, 0.0, 0.0, 0.0, 0.0)",2.57,-0.62,-9.485,"(0.0, 0.0, 0.0, 0.0, 0.0, 0.0, 0.0, 0.0, 0.0)",0,0,0,,0.0668,-0.0518,0.352,"(0.0, 0.0, 0.0, 0.0, 0.0, 0.0, 0.0, 0.0, 0.0)",-1.621,9.811,22.162,"$VNYMR,+022.162,+009.811,-001.621,+00.0668,-00.0518,+00.3520,+02.570,-00.620,-09.485,+00.038046,+00.008526,-00.235123*68
"
1667362685.1148274,0,1667362685,114406585,IMU1_Frame,0,0,0,,-0.030121959481096573,0.08129044147916441,0.18968263367960708,0.9780107515572156,"(0.0, 0.0, 0.0, 0.0, 0.0, 0.0, 0.0, 0.0, 0.0)",0.026429,0.009113,-0.243927,"(0.0, 0.0, 0.0, 0.0, 0.0, 0.0, 0.0, 0.0, 0.0)",2.412,-0.642,-9.748,"(0.0, 0.0, 0.0, 0.0, 0.0, 0.0, 0.0, 0.0, 0.0)",0,0,0,,0.0677,-0.0489,0.3476,"(0.0, 0.0, 0.0, 0.0, 0.0, 0.0, 0.0, 0.0, 0.0)",-1.633,9.813,21.812,"$VNYMR,+021.812,+009.813,-001.633,+00.0677,-00.0489,+00.3476,+02.412,-00.642,-09.748,+00.026429,+00.009113,-00.243927*6E
"
1667362685.1570933,0,1667362685,139013528,IMU1_Frame,0,0,0,,-0.030043805007319638,0.08135880916177653,0.18668315574975092,0.9785844436285375,"(0.0, 0.0, 0.0, 0.0, 0.0, 0.0, 0.0, 0.0, 0.0)",0.018332,0.016548,-0.24296,"(0.0, 0.0, 0.0, 0.0, 0.0, 0.0, 0.0, 0.0, 0.0)",2.325,-0.574,-9.658,"(0.0, 0.0, 0.0, 0.0, 0.0, 0.0, 0.0, 0.0, 0.0)",0,0,0,,0.0629,-0.0517,0.3396,"(0.0, 0.0, 0.0, 0.0, 0.0, 0.0, 0.0, 0.0, 0.0)",-1.653,9.814,21.459,"$VNYMR,+021.459,+009.814,-001.653,+00.0629,-00.0517,+00.3396,+02.325,-00.574,-09.658,+00.018332,+00.016548,-00.242960*6B
"
1667362685.2004132,0,1667362685,163940906,IMU1_Frame,0,0,0,,-0.029875589869987437,0.08131280063929619,0.18360024740299058,0.9791765043829814,"(0.0, 0.0, 0.0, 0.0, 0.0, 0.0, 0.0, 0.0, 0.0)",0.03476,-0.008394,-0.250072,"(0.0, 0.0, 0.0, 0.0, 0.0, 0.0, 0.0, 0.0, 0.0)",2.114,-0.663,-9.965,"(0.0, 0.0, 0.0, 0.0, 0.0, 0.0, 0.0, 0.0, 0.0)",0,0,0,,0.0649,-0.0448,0.3463,"(0.0, 0.0, 0.0, 0.0, 0.0, 0.0, 0.0, 0.0, 0.0)",-1.666,9.8,21.097,"$VNYMR,+021.097,+009.800,-001.666,+00.0649,-00.0448,+00.3463,+02.114,-00.663,-09.965,+00.034760,-00.008394,-00.250072*60
"
1667362685.2004461,0,1667362685,189093589,IMU1_Frame,0,0,0,,-0.029606926571002543,0.08119675334605601,0.18050842960182223,0.9797689645971457,"(0.0, 0.0, 0.0, 0.0, 0.0, 0.0, 0.0, 0.0, 0.0)",0.043779,-0.014639,-0.250988,"(0.0, 0.0, 0.0, 0.0, 0.0, 0.0, 0.0, 0.0, 0.0)",2.284,-0.665,-9.753,"(0.0, 0.0, 0.0, 0.0, 0.0, 0.0, 0.0, 0.0, 0.0)",0,0,0,,0.0639,-0.0517,0.3408,"(0.0, 0.0, 0.0, 0.0, 0.0, 0.0, 0.0, 0.0, 0.0)",-1.669,9.776,20.735,"$VNYMR,+020.735,+009.776,-001.669,+00.0639,-00.0517,+00.3408,+02.284,-00.665,-09.753,+00.043779,-00.014639,-00.250988*62
"
1667362685.2437694,0,1667362685,213786363,IMU1_Frame,0,0,0,,-0.029215436256134646,0.08111964949342536,0.1774211628152989,0.9803508513464425,"(0.0, 0.0, 0.0, 0.0, 0.0, 0.0, 0.0, 0.0, 0.0)",0.057758,-0.014181,-0.248905,"(0.0, 0.0, 0.0, 0.0, 0.0, 0.0, 0.0, 0.0, 0.0)",2.463,-0.751,-9.831,"(0.0, 0.0, 0.0, 0.0, 0.0, 0.0, 0.0, 0.0, 0.0)",0,0,0,,0.0658,-0.0518,0.3453,"(0.0, 0.0, 0.0, 0.0, 0.0, 0.0, 0.0, 0.0, 0.0)",-1.657,9.754,20.375,"$VNYMR,+020.375,+009.754,-001.657,+00.0658,-00.0518,+00.3453,+02.463,-00.751,-09.831,+00.057758,-00.014181,-00.248905*65
"
1667362685.2437968,0,1667362685,238686800,IMU1_Frame,0,0,0,,-0.028710521613063686,0.0810525990972241,0.17430574400072835,0.9809300126597426,"(0.0, 0.0, 0.0, 0.0, 0.0, 0.0, 0.0, 0.0, 0.0)",0.056983,-0.001736,-0.250784,"(0.0, 0.0, 0.0, 0.0, 0.0, 0.0, 0.0, 0.0, 0.0)",1.556,-1.085,-9.415,"(0.0, 0.0, 0.0, 0.0, 0.0, 0.0, 0.0, 0.0, 0.0)",0,0,0,,0.0601,-0.0516,0.3395,"(0.0, 0.0, 0.0, 0.0, 0.0, 0.0, 0.0, 0.0, 0.0)",-1.632,9.731,20.013,"$VNYMR,+020.013,+009.731,-001.632,+00.0601,-00.0516,+00.3395,+01.556,-01.085,-09.415,+00.056983,-00.001736,-00.250784*61
"
1667362685.2870803,0,1667362685,264445781,IMU1_Frame,0,0,0,,-0.02816714257520625,0.0810075237226099,0.17119352669877191,0.981497411915037,"(0.0, 0.0, 0.0, 0.0, 0.0, 0.0, 0.0, 0.0, 0.0)",0.075307,-0.010324,-0.252012,"(0.0, 0.0, 0.0, 0.0, 0.0, 0.0, 0.0, 0.0, 0.0)",2.725,-0.695,-10.012,"(0.0, 0.0, 0.0, 0.0, 0.0, 0.0, 0.0, 0.0, 0.0)",0,0,0,,0.0601,-0.0516,0.3406,"(0.0, 0.0, 0.0, 0.0, 0.0, 0.0, 0.0, 0.0, 0.0)",-1.602,9.71,19.652,"$VNYMR,+019.652,+009.710,-001.602,+00.0601,-00.0516,+00.3406,+02.725,-00.695,-10.012,+00.075307,-00.010324,-00.252012*67
"
1667362685.2897317,0,1667362685,289387226,IMU1_Frame,0,0,0,,-0.027705479496061898,0.08114941777992138,0.1680408027201645,0.9820435158489852,"(0.0, 0.0, 0.0, 0.0, 0.0, 0.0, 0.0, 0.0, 0.0)",0.061169,-0.008976,-0.254905,"(0.0, 0.0, 0.0, 0.0, 0.0, 0.0, 0.0, 0.0, 0.0)",2.172,-1.213,-9.694,"(0.0, 0.0, 0.0, 0.0, 0.0, 0.0, 0.0, 0.0, 0.0)",0,0,0,,0.0611,-0.0447,0.3417,"(0.0, 0.0, 0.0, 0.0, 0.0, 0.0, 0.0, 0.0, 0.0)",-1.578,9.712,19.286,"$VNYMR,+019.286,+009.712,-001.578,+00.0611,-00.0447,+00.3417,+02.172,-01.213,-09.694,+00.061169,-00.008976,-00.254905*6F
"
1667362685.3303773,0,1667362685,314389467,IMU1_Frame,0,0,0,,-0.027315522294909134,0.0811358708758702,0.16490276664313774,0.9825873550236688,"(0.0, 0.0, 0.0, 0.0, 0.0, 0.0, 0.0, 0.0, 0.0)",0.039966,0.004523,-0.251563,"(0.0, 0.0, 0.0, 0.0, 0.0, 0.0, 0.0, 0.0, 0.0)",2.107,-1.013,-9.599,"(0.0, 0.0, 0.0, 0.0, 0.0, 0.0, 0.0, 0.0, 0.0)",0,0,0,,0.0582,-0.0476,0.3394,"(0.0, 0.0, 0.0, 0.0, 0.0, 0.0, 0.0, 0.0, 0.0)",-1.565,9.698,18.921,"$VNYMR,+018.921,+009.698,-001.565,+00.0582,-00.0476,+00.3394,+02.107,-01.013,-09.599,+00.039966,+00.004523,-00.251563*6B
"
1667362685.3737473,0,1667362685,339222431,IMU1_Frame,0,0,0,,-0.026975507650569268,0.08122752974389988,0.16173147829850376,0.9831161372523993,"(0.0, 0.0, 0.0, 0.0, 0.0, 0.0, 0.0, 0.0, 0.0)",0.055005,0.004428,-0.257126,"(0.0, 0.0, 0.0, 0.0, 0.0, 0.0, 0.0, 0.0, 0.0)",3.019,-0.662,-9.84,"(0.0, 0.0, 0.0, 0.0, 0.0, 0.0, 0.0, 0.0, 0.0)",0,0,0,,0.0584,-0.0386,0.3426,"(0.0, 0.0, 0.0, 0.0, 0.0, 0.0, 0.0, 0.0, 0.0)",-1.556,9.697,18.552,"$VNYMR,+018.552,+009.697,-001.556,+00.0584,-00.0386,+00.3426,+03.019,-00.662,-09.840,+00.055005,+00.004428,-00.257126*64
"
1667362685.373776,0,1667362685,364476680,IMU1_Frame,0,0,0,,-0.026552020344122025,0.08135790046702424,0.15853422604706144,0.9836375254222981,"(0.0, 0.0, 0.0, 0.0, 0.0, 0.0, 0.0, 0.0, 0.0)",0.05528,0.004551,-0.259311,"(0.0, 0.0, 0.0, 0.0, 0.0, 0.0, 0.0, 0.0, 0.0)",2.024,-1.166,-9.714,"(0.0, 0.0, 0.0, 0.0, 0.0, 0.0, 0.0, 0.0, 0.0)",0,0,0,,0.0555,-0.0435,0.3403,"(0.0, 0.0, 0.0, 0.0, 0.0, 0.0, 0.0, 0.0, 0.0)",-1.537,9.699,18.181,"$VNYMR,+018.181,+009.699,-001.537,+00.0555,-00.0435,+00.3403,+02.024,-01.166,-09.714,+00.055280,+00.004551,-00.259311*68
"
1667362685.4173093,0,1667362685,389132261,IMU1_Frame,0,0,0,,-0.026058782791053715,0.08154107933204167,0.15534605368059018,0.9841440930202658,"(0.0, 0.0, 0.0, 0.0, 0.0, 0.0, 0.0, 0.0, 0.0)",0.062141,0.007304,-0.253247,"(0.0, 0.0, 0.0, 0.0, 0.0, 0.0, 0.0, 0.0, 0.0)",2.124,-0.709,-9.937,"(0.0, 0.0, 0.0, 0.0, 0.0, 0.0, 0.0, 0.0, 0.0)",0,0,0,,0.0601,-0.0526,0.3362,"(0.0, 0.0, 0.0, 0.0, 0.0, 0.0, 0.0, 0.0, 0.0)",-1.509,9.706,17.812,"$VNYMR,+017.812,+009.706,-001.509,+00.0601,-00.0526,+00.3362,+02.124,-00.709,-09.937,+00.062141,+00.007304,-00.253247*68
"
1667362685.417336,0,1667362685,414340019,IMU1_Frame,0,0,0,,-0.02535604405784883,0.08177252484121511,0.15207895051166048,0.9846533999444176,"(0.0, 0.0, 0.0, 0.0, 0.0, 0.0, 0.0, 0.0, 0.0)",0.091133,0.010659,-0.265635,"(0.0, 0.0, 0.0, 0.0, 0.0, 0.0, 0.0, 0.0, 0.0)",2.654,-0.655,-9.709,"(0.0, 0.0, 0.0, 0.0, 0.0, 0.0, 0.0, 0.0, 0.0)",0,0,0,,0.0564,-0.0445,0.3437,"(0.0, 0.0, 0.0, 0.0, 0.0, 0.0, 0.0, 0.0, 0.0)",-1.457,9.715,17.436,"$VNYMR,+017.436,+009.715,-001.457,+00.0564,-00.0445,+00.3437,+02.654,-00.655,-09.709,+00.091133,+00.010659,-00.265635*64
"
1667362685.4604151,0,1667362685,438890933,IMU1_Frame,0,0,0,,-0.02453110797163309,0.08205450939503334,0.14873125853029504,0.9851620653301765,"(0.0, 0.0, 0.0, 0.0, 0.0, 0.0, 0.0, 0.0, 0.0)",0.093794,0.015193,-0.272753,"(0.0, 0.0, 0.0, 0.0, 0.0, 0.0, 0.0, 0.0, 0.0)",2.387,-1.218,-9.254,"(0.0, 0.0, 0.0, 0.0, 0.0, 0.0, 0.0, 0.0, 0.0)",0,0,0,,0.0602,-0.0407,0.3438,"(0.0, 0.0, 0.0, 0.0, 0.0, 0.0, 0.0, 0.0, 0.0)",-1.391,9.728,17.052,"$VNYMR,+017.052,+009.728,-001.391,+00.0602,-00.0407,+00.3438,+02.387,-01.218,-09.254,+00.093794,+00.015193,-00.272753*6B
"
1667362685.4642525,0,1667362685,463881731,IMU1_Frame,0,0,0,,-0.023758849232120717,0.08236829718072905,0.14534295262034455,0.9856603912232209,"(0.0, 0.0, 0.0, 0.0, 0.0, 0.0, 0.0, 0.0, 0.0)",0.077197,0.028731,-0.26653,"(0.0, 0.0, 0.0, 0.0, 0.0, 0.0, 0.0, 0.0, 0.0)",2.0,-1.285,-9.693,"(0.0, 0.0, 0.0, 0.0, 0.0, 0.0, 0.0, 0.0, 0.0)",0,0,0,,0.0575,-0.0356,0.3436,"(0.0, 0.0, 0.0, 0.0, 0.0, 0.0, 0.0, 0.0, 0.0)",-1.331,9.746,16.663,"$VNYMR,+016.663,+009.746,-001.331,+00.0575,-00.0356,+00.3436,+02.000,-01.285,-09.693,+00.077197,+00.028731,-00.266530*68
"
1667362685.5070539,0,1667362685,488777399,IMU1_Frame,0,0,0,,-0.023064154026827405,0.0826146989151988,0.1418660975425661,0.9861626978801321,"(0.0, 0.0, 0.0, 0.0, 0.0, 0.0, 0.0, 0.0, 0.0)",0.075778,0.009683,-0.276048,"(0.0, 0.0, 0.0, 0.0, 0.0, 0.0, 0.0, 0.0, 0.0)",2.57,-1.41,-9.339,"(0.0, 0.0, 0.0, 0.0, 0.0, 0.0, 0.0, 0.0, 0.0)",0,0,0,,0.0602,-0.0427,0.3405,"(0.0, 0.0, 0.0, 0.0, 0.0, 0.0, 0.0, 0.0, 0.0)",-1.282,9.758,16.263,"$VNYMR,+016.263,+009.758,-001.282,+00.0602,-00.0427,+00.3405,+02.570,-01.410,-09.339,+00.075778,+00.009683,-00.276048*60
"
1667362685.550428,0,1667362685,513687849,IMU1_Frame,0,0,0,,-0.022469871247930574,0.08286995382745,0.1383357697903247,0.9866564196493407,"(0.0, 0.0, 0.0, 0.0, 0.0, 0.0, 0.0, 0.0, 0.0)",0.073453,0.011409,-0.283652,"(0.0, 0.0, 0.0, 0.0, 0.0, 0.0, 0.0, 0.0, 0.0)",2.78,-1.185,-9.113,"(0.0, 0.0, 0.0, 0.0, 0.0, 0.0, 0.0, 0.0, 0.0)",0,0,0,,0.0574,-0.0406,0.3348,"(0.0, 0.0, 0.0, 0.0, 0.0, 0.0, 0.0, 0.0, 0.0)",-1.245,9.773,15.856,"$VNYMR,+015.856,+009.773,-001.245,+00.0574,-00.0406,+00.3348,+02.780,-01.185,-09.113,+00.073453,+00.011409,-00.283652*6E
"
1667362685.5504525,0,1667362685,539485454,IMU1_Frame,0,0,0,,-0.02191990338835903,0.08314217590982494,0.13479861077917085,0.9871353660731796,"(0.0, 0.0, 0.0, 0.0, 0.0, 0.0, 0.0, 0.0, 0.0)",0.070734,0.023552,-0.28134,"(0.0, 0.0, 0.0, 0.0, 0.0, 0.0, 0.0, 0.0, 0.0)",1.785,-1.324,-9.002,"(0.0, 0.0, 0.0, 0.0, 0.0, 0.0, 0.0, 0.0, 0.0)",0,0,0,,0.0593,-0.0397,0.3382,"(0.0, 0.0, 0.0, 0.0, 0.0, 0.0, 0.0, 0.0, 0.0)",-1.213,9.791,15.448,"$VNYMR,+015.448,+009.791,-001.213,+00.0593,-00.0397,+00.3382,+01.785,-01.324,-09.002,+00.070734,+00.023552,-00.281340*67
"
1667362685.5939755,0,1667362685,564420938,IMU1_Frame,0,0,0,,-0.021385450143515117,0.08339142949492416,0.13128702345250823,0.9875992352578716,"(0.0, 0.0, 0.0, 0.0, 0.0, 0.0, 0.0, 0.0, 0.0)",0.060722,0.024538,-0.271772,"(0.0, 0.0, 0.0, 0.0, 0.0, 0.0, 0.0, 0.0, 0.0)",1.985,-1.124,-9.714,"(0.0, 0.0, 0.0, 0.0, 0.0, 0.0, 0.0, 0.0, 0.0)",0,0,0,,0.0593,-0.0387,0.3415,"(0.0, 0.0, 0.0, 0.0, 0.0, 0.0, 0.0, 0.0, 0.0)",-1.183,9.807,15.043,"$VNYMR,+015.043,+009.807,-001.183,+00.0593,-00.0387,+00.3415,+01.985,-01.124,-09.714,+00.060722,+00.024538,-00.271772*61
"
1667362685.5940032,0,1667362685,589348316,IMU1_Frame,0,0,0,,-0.020769523803765687,0.08369202438730061,0.12777503495275908,0.9880474747590531,"(0.0, 0.0, 0.0, 0.0, 0.0, 0.0, 0.0, 0.0, 0.0)",0.076435,0.01899,-0.276685,"(0.0, 0.0, 0.0, 0.0, 0.0, 0.0, 0.0, 0.0, 0.0)",2.173,-1.27,-9.87,"(0.0, 0.0, 0.0, 0.0, 0.0, 0.0, 0.0, 0.0, 0.0)",0,0,0,,0.0556,-0.0326,0.338,"(0.0, 0.0, 0.0, 0.0, 0.0, 0.0, 0.0, 0.0, 0.0)",-1.143,9.828,14.639,"$VNYMR,+014.639,+009.828,-001.143,+00.0556,-00.0326,+00.3380,+02.173,-01.270,-09.870,+00.076435,+00.018990,-00.276685*63
"
1667362685.6372588,0,1667362685,614252805,IMU1_Frame,0,0,0,,-0.020095770602386136,0.08399583535386518,0.12430799816255854,0.9884778101909623,"(0.0, 0.0, 0.0, 0.0, 0.0, 0.0, 0.0, 0.0, 0.0)",0.085956,0.011215,-0.277726,"(0.0, 0.0, 0.0, 0.0, 0.0, 0.0, 0.0, 0.0, 0.0)",3.056,-0.968,-10.023,"(0.0, 0.0, 0.0, 0.0, 0.0, 0.0, 0.0, 0.0, 0.0)",0,0,0,,0.0593,-0.0337,0.3371,"(0.0, 0.0, 0.0, 0.0, 0.0, 0.0, 0.0, 0.0, 0.0)",-1.096,9.849,14.241,"$VNYMR,+014.241,+009.849,-001.096,+00.0593,-00.0337,+00.3371,+03.056,-00.968,-10.023,+00.085956,+00.011215,-00.277726*61
"
1667362685.6394806,0,1667362685,639146089,IMU1_Frame,0,0,0,,-0.019267830375502826,0.08427969245800074,0.1208096251694077,0.9889037964424208,"(0.0, 0.0, 0.0, 0.0, 0.0, 0.0, 0.0, 0.0, 0.0)",0.109021,0.003943,-0.282785,"(0.0, 0.0, 0.0, 0.0, 0.0, 0.0, 0.0, 0.0, 0.0)",2.11,-1.083,-9.736,"(0.0, 0.0, 0.0, 0.0, 0.0, 0.0, 0.0, 0.0, 0.0)",0,0,0,,0.0565,-0.0376,0.3381,"(0.0, 0.0, 0.0, 0.0, 0.0, 0.0, 0.0, 0.0, 0.0)",-1.032,9.866,13.841,"$VNYMR,+013.841,+009.866,-001.032,+00.0565,-00.0376,+00.3381,+02.110,-01.083,-09.736,+00.109021,+00.003943,-00.282785*6C
"
1667362685.680424,0,1667362685,664451837,IMU1_Frame,0,0,0,,-0.018450406990410378,0.08453038465368808,0.11738807361648292,0.9893099800996648,"(0.0, 0.0, 0.0, 0.0, 0.0, 0.0, 0.0, 0.0, 0.0)",0.093413,0.010793,-0.271165,"(0.0, 0.0, 0.0, 0.0, 0.0, 0.0, 0.0, 0.0, 0.0)",1.762,-1.57,-9.565,"(0.0, 0.0, 0.0, 0.0, 0.0, 0.0, 0.0, 0.0, 0.0)",0,0,0,,0.0612,-0.0397,0.3405,"(0.0, 0.0, 0.0, 0.0, 0.0, 0.0, 0.0, 0.0, 0.0)",-0.969,9.88,13.45,"$VNYMR,+013.450,+009.880,-000.969,+00.0612,-00.0397,+00.3405,+01.762,-01.570,-09.565,+00.093413,+00.010793,-00.271165*66
"
1667362685.7242045,0,1667362685,688934326,IMU1_Frame,0,0,0,,-0.017712915606359854,0.08481979211132426,0.11394563604896284,0.98970108998238,"(0.0, 0.0, 0.0, 0.0, 0.0, 0.0, 0.0, 0.0, 0.0)",0.071926,0.017881,-0.267831,"(0.0, 0.0, 0.0, 0.0, 0.0, 0.0, 0.0, 0.0, 0.0)",1.98,-1.122,-9.461,"(0.0, 0.0, 0.0, 0.0, 0.0, 0.0, 0.0, 0.0, 0.0)",0,0,0,,0.0573,-0.0386,0.3293,"(0.0, 0.0, 0.0, 0.0, 0.0, 0.0, 0.0, 0.0, 0.0)",-0.915,9.9,13.056,"$VNYMR,+013.056,+009.900,-000.915,+00.0573,-00.0386,+00.3293,+01.980,-01.122,-09.461,+00.071926,+00.017881,-00.267831*6C
"
1667362685.7242246,0,1667362685,713970661,IMU1_Frame,0,0,0,,-0.017076559874006282,0.08504146360022484,0.1104682635640517,0.9900874220576404,"(0.0, 0.0, 0.0, 0.0, 0.0, 0.0, 0.0, 0.0, 0.0)",0.067072,0.010037,-0.27261,"(0.0, 0.0, 0.0, 0.0, 0.0, 0.0, 0.0, 0.0, 0.0)",2.633,-1.261,-9.668,"(0.0, 0.0, 0.0, 0.0, 0.0, 0.0, 0.0, 0.0, 0.0)",0,0,0,,0.0555,-0.0386,0.3392,"(0.0, 0.0, 0.0, 0.0, 0.0, 0.0, 0.0, 0.0, 0.0)",-0.874,9.914,12.657,"$VNYMR,+012.657,+009.914,-000.874,+00.0555,-00.0386,+00.3392,+02.633,-01.261,-09.668,+00.067072,+00.010037,-00.272610*62
"
1667362685.7671652,0,1667362685,738800525,IMU1_Frame,0,0,0,,-0.0165153214243145,0.08519937803073971,0.10694516183079127,0.9904701118672953,"(0.0, 0.0, 0.0, 0.0, 0.0, 0.0, 0.0, 0.0, 0.0)",0.066785,0.0058,-0.281113,"(0.0, 0.0, 0.0, 0.0, 0.0, 0.0, 0.0, 0.0, 0.0)",2.704,-1.188,-9.784,"(0.0, 0.0, 0.0, 0.0, 0.0, 0.0, 0.0, 0.0, 0.0)",0,0,0,,0.0527,-0.0325,0.3301,"(0.0, 0.0, 0.0, 0.0, 0.0, 0.0, 0.0, 0.0, 0.0)",-0.843,9.922,12.252,"$VNYMR,+012.252,+009.922,-000.843,+00.0527,-00.0325,+00.3301,+02.704,-01.188,-09.784,+00.066785,+00.005800,-00.281113*68
"
1667362685.7671752,0,1667362685,763792276,IMU1_Frame,0,0,0,,-0.01596780316666757,0.08532663111289887,0.10342222890233932,0.9908421861496541,"(0.0, 0.0, 0.0, 0.0, 0.0, 0.0, 0.0, 0.0, 0.0)",0.070821,0.006256,-0.28195,"(0.0, 0.0, 0.0, 0.0, 0.0, 0.0, 0.0, 0.0, 0.0)",2.186,-0.976,-9.683,"(0.0, 0.0, 0.0, 0.0, 0.0, 0.0, 0.0, 0.0, 0.0)",0,0,0,,0.0538,-0.0236,0.3334,"(0.0, 0.0, 0.0, 0.0, 0.0, 0.0, 0.0, 0.0, 0.0)",-0.814,9.927,11.847,"$VNYMR,+011.847,+009.927,-000.814,+00.0538,-00.0236,+00.3334,+02.186,-00.976,-09.683,+00.070821,+00.006256,-00.281950*68
"
1667362685.8104205,0,1667362685,788683414,IMU1_Frame,0,0,0,,-0.0153202553798885,0.08542619091767935,0.09988118794826295,0.9912070439491615,"(0.0, 0.0, 0.0, 0.0, 0.0, 0.0, 0.0, 0.0, 0.0)",0.073612,0.004875,-0.277785,"(0.0, 0.0, 0.0, 0.0, 0.0, 0.0, 0.0, 0.0, 0.0)",2.041,-1.464,-9.493,"(0.0, 0.0, 0.0, 0.0, 0.0, 0.0, 0.0, 0.0, 0.0)",0,0,0,,0.0528,-0.0265,0.3422,"(0.0, 0.0, 0.0, 0.0, 0.0, 0.0, 0.0, 0.0, 0.0)",-0.774,9.928,11.441,"$VNYMR,+011.441,+009.928,-000.774,+00.0528,-00.0265,+00.3422,+02.041,-01.464,-09.493,+00.073612,+00.004875,-00.277785*6E
"
1667362685.8148403,0,1667362685,814485311,IMU1_Frame,0,0,0,,-0.014622526742570773,0.08552688369397968,0.09636032332198363,0.9915573719994935,"(0.0, 0.0, 0.0, 0.0, 0.0, 0.0, 0.0, 0.0, 0.0)",0.077982,0.002111,-0.275268,"(0.0, 0.0, 0.0, 0.0, 0.0, 0.0, 0.0, 0.0, 0.0)",1.809,-1.376,-9.571,"(0.0, 0.0, 0.0, 0.0, 0.0, 0.0, 0.0, 0.0, 0.0)",0,0,0,,0.0555,-0.0306,0.328,"(0.0, 0.0, 0.0, 0.0, 0.0, 0.0, 0.0, 0.0, 0.0)",-0.728,9.929,11.038,"$VNYMR,+011.038,+009.929,-000.728,+00.0555,-00.0306,+00.3280,+01.809,-01.376,-09.571,+00.077982,+00.002111,-00.275268*69
"
1667362685.8570824,0,1667362685,839406013,IMU1_Frame,0,0,0,,-0.013822019162793665,0.0855810437660887,0.09280413650154602,0.9919033365113622,"(0.0, 0.0, 0.0, 0.0, 0.0, 0.0, 0.0, 0.0, 0.0)",0.081096,-0.002362,-0.278202,"(0.0, 0.0, 0.0, 0.0, 0.0, 0.0, 0.0, 0.0, 0.0)",1.828,-1.668,-9.461,"(0.0, 0.0, 0.0, 0.0, 0.0, 0.0, 0.0, 0.0, 0.0)",0,0,0,,0.0556,-0.0256,0.3257,"(0.0, 0.0, 0.0, 0.0, 0.0, 0.0, 0.0, 0.0, 0.0)",-0.671,9.924,10.632,"$VNYMR,+010.632,+009.924,-000.671,+00.0556,-00.0256,+00.3257,+01.828,-01.668,-09.461,+00.081096,-00.002362,-00.278202*64
"
1667362685.9005427,0,1667362685,864304780,IMU1_Frame,0,0,0,,-0.01307202378221885,0.08555642511591012,0.08920882728020078,0.9922454360947768,"(0.0, 0.0, 0.0, 0.0, 0.0, 0.0, 0.0, 0.0, 0.0)",0.085633,-0.0155,-0.286812,"(0.0, 0.0, 0.0, 0.0, 0.0, 0.0, 0.0, 0.0, 0.0)",1.932,-1.615,-9.212,"(0.0, 0.0, 0.0, 0.0, 0.0, 0.0, 0.0, 0.0, 0.0)",0,0,0,,0.0584,-0.0267,0.3347,"(0.0, 0.0, 0.0, 0.0, 0.0, 0.0, 0.0, 0.0, 0.0)",-0.621,9.911,10.221,"$VNYMR,+010.221,+009.911,-000.621,+00.0584,-00.0267,+00.3347,+01.932,-01.615,-09.212,+00.085633,-00.015500,-00.286812*6D
"
1667362685.9005687,0,1667362685,889253139,IMU1_Frame,0,0,0,,-0.012405795012216374,0.08542454623193244,0.08557746303202002,0.9925851303400562,"(0.0, 0.0, 0.0, 0.0, 0.0, 0.0, 0.0, 0.0, 0.0)",0.074546,-0.027505,-0.285898,"(0.0, 0.0, 0.0, 0.0, 0.0, 0.0, 0.0, 0.0, 0.0)",2.071,-1.465,-9.434,"(0.0, 0.0, 0.0, 0.0, 0.0, 0.0, 0.0, 0.0, 0.0)",0,0,0,,0.0519,-0.0245,0.3422,"(0.0, 0.0, 0.0, 0.0, 0.0, 0.0, 0.0, 0.0, 0.0)",-0.582,9.887,9.805,"$VNYMR,+009.805,+009.887,-000.582,+00.0519,-00.0245,+00.3422,+02.071,-01.465,-09.434,+00.074546,-00.027505,-00.285898*6D
"
1667362685.9438982,0,1667362685,914165735,IMU1_Frame,0,0,0,,-0.011827923277021177,0.08525590996684948,0.08188386362903528,0.9929182055556535,"(0.0, 0.0, 0.0, 0.0, 0.0, 0.0, 0.0, 0.0, 0.0)",0.061043,-0.011283,-0.289406,"(0.0, 0.0, 0.0, 0.0, 0.0, 0.0, 0.0, 0.0, 0.0)",2.271,-1.523,-9.664,"(0.0, 0.0, 0.0, 0.0, 0.0, 0.0, 0.0, 0.0, 0.0)",0,0,0,,0.0538,-0.0196,0.3345,"(0.0, 0.0, 0.0, 0.0, 0.0, 0.0, 0.0, 0.0, 0.0)",-0.554,9.86,9.381,"$VNYMR,+009.381,+009.860,-000.554,+00.0538,-00.0196,+00.3345,+02.271,-01.523,-09.664,+00.061043,-00.011283,-00.289406*69
"
1667362685.9439223,0,1667362685,939145326,IMU1_Frame,0,0,0,,-0.011311623110507218,0.08501861640630134,0.07814313624102895,0.9932459576083761,"(0.0, 0.0, 0.0, 0.0, 0.0, 0.0, 0.0, 0.0, 0.0)",0.061192,-0.024892,-0.296665,"(0.0, 0.0, 0.0, 0.0, 0.0, 0.0, 0.0, 0.0, 0.0)",2.107,-1.655,-9.534,"(0.0, 0.0, 0.0, 0.0, 0.0, 0.0, 0.0, 0.0, 0.0)",0,0,0,,0.0529,-0.0196,0.3344,"(0.0, 0.0, 0.0, 0.0, 0.0, 0.0, 0.0, 0.0, 0.0)",-0.534,9.826,8.951,"$VNYMR,+008.951,+009.826,-000.534,+00.0529,-00.0196,+00.3344,+02.107,-01.655,-09.534,+00.061192,-00.024892,-00.296665*64
"
1667362685.9870636,0,1667362685,964024782,IMU1_Frame,0,0,0,,-0.010860903496333004,0.08475667511487305,0.0743551237429724,0.9935641209161501,"(0.0, 0.0, 0.0, 0.0, 0.0, 0.0, 0.0, 0.0, 0.0)",0.05519,-0.019154,-0.299768,"(0.0, 0.0, 0.0, 0.0, 0.0, 0.0, 0.0, 0.0, 0.0)",1.974,-1.593,-9.657,"(0.0, 0.0, 0.0, 0.0, 0.0, 0.0, 0.0, 0.0, 0.0)",0,0,0,,0.0528,-0.0206,0.33,"(0.0, 0.0, 0.0, 0.0, 0.0, 0.0, 0.0, 0.0, 0.0)",-0.522,9.79,8.515,"$VNYMR,+008.515,+009.790,-000.522,+00.0528,-00.0206,+00.3300,+01.974,-01.593,-09.657,+00.055190,-00.019154,-00.299768*6D
"
1667362685.989254,0,1667362685,988903999,IMU1_Frame,0,0,0,,-0.010473751868916348,0.0845406263518456,0.07053626911521331,0.9938650903201764,"(0.0, 0.0, 0.0, 0.0, 0.0, 0.0, 0.0, 0.0, 0.0)",0.056339,-0.017004,-0.3062,"(0.0, 0.0, 0.0, 0.0, 0.0, 0.0, 0.0, 0.0, 0.0)",1.935,-1.871,-9.695,"(0.0, 0.0, 0.0, 0.0, 0.0, 0.0, 0.0, 0.0, 0.0)",0,0,0,,0.0529,-0.0156,0.3344,"(0.0, 0.0, 0.0, 0.0, 0.0, 0.0, 0.0, 0.0, 0.0)",-0.517,9.76,8.075,"$VNYMR,+008.075,+009.760,-000.517,+00.0529,-00.0156,+00.3344,+01.935,-01.871,-09.695,+00.056339,-00.017004,-00.306200*6E
"
1667362686.0303757,0,1667362686,13829708,IMU1_Frame,0,0,0,,-0.010236318029494935,0.084330394890214,0.06672003230263007,0.9941489021169795,"(0.0, 0.0, 0.0, 0.0, 0.0, 0.0, 0.0, 0.0, 0.0)",0.03421,-0.011316,-0.301019,"(0.0, 0.0, 0.0, 0.0, 0.0, 0.0, 0.0, 0.0, 0.0)",2.014,-1.816,-9.838,"(0.0, 0.0, 0.0, 0.0, 0.0, 0.0, 0.0, 0.0, 0.0)",0,0,0,,0.0585,-0.0217,0.3303,"(0.0, 0.0, 0.0, 0.0, 0.0, 0.0, 0.0, 0.0, 0.0)",-0.529,9.732,7.634,"$VNYMR,+007.634,+009.732,-000.529,+00.0585,-00.0217,+00.3303,+02.014,-01.816,-09.838,+00.034210,-00.011316,-00.301019*6F
"
1667362686.0738037,0,1667362686,38734436,IMU1_Frame,0,0,0,,-0.010113078155526044,0.08426938428995576,0.06289397287798038,0.9944047187625549,"(0.0, 0.0, 0.0, 0.0, 0.0, 0.0, 0.0, 0.0, 0.0)",0.0213,0.009407,-0.301528,"(0.0, 0.0, 0.0, 0.0, 0.0, 0.0, 0.0, 0.0, 0.0)",1.794,-1.751,-10.002,"(0.0, 0.0, 0.0, 0.0, 0.0, 0.0, 0.0, 0.0, 0.0)",0,0,0,,0.0538,-0.0186,0.3289,"(0.0, 0.0, 0.0, 0.0, 0.0, 0.0, 0.0, 0.0, 0.0)",-0.553,9.722,7.191,"$VNYMR,+007.191,+009.722,-000.553,+00.0538,-00.0186,+00.3289,+01.794,-01.751,-10.002,+00.021300,+00.009407,-00.301528*67
"
1667362686.0738294,0,1667362686,63633680,IMU1_Frame,0,0,0,,-0.010019322990422797,0.08426798170754993,0.059060420793374806,0.9946408332264762,"(0.0, 0.0, 0.0, 0.0, 0.0, 0.0, 0.0, 0.0, 0.0)",0.026792,0.003315,-0.304088,"(0.0, 0.0, 0.0, 0.0, 0.0, 0.0, 0.0, 0.0, 0.0)",1.958,-1.666,-10.134,"(0.0, 0.0, 0.0, 0.0, 0.0, 0.0, 0.0, 0.0, 0.0)",0,0,0,,0.0539,-0.0156,0.3366,"(0.0, 0.0, 0.0, 0.0, 0.0, 0.0, 0.0, 0.0, 0.0)",-0.58,9.719,6.747,"$VNYMR,+006.747,+009.719,-000.580,+00.0539,-00.0156,+00.3366,+01.958,-01.666,-10.134,+00.026792,+00.003315,-00.304088*62
"
1667362686.117197,0,1667362686,89455842,IMU1_Frame,0,0,0,,-0.009938987121880512,0.08430978258137511,0.055252775347305515,0.9948568781048319,"(0.0, 0.0, 0.0, 0.0, 0.0, 0.0, 0.0, 0.0, 0.0)",0.02643,0.006572,-0.299139,"(0.0, 0.0, 0.0, 0.0, 0.0, 0.0, 0.0, 0.0, 0.0)",1.653,-1.304,-10.041,"(0.0, 0.0, 0.0, 0.0, 0.0, 0.0, 0.0, 0.0, 0.0)",0,0,0,,0.0575,-0.0207,0.3313,"(0.0, 0.0, 0.0, 0.0, 0.0, 0.0, 0.0, 0.0, 0.0)",-0.608,9.721,6.306,"$VNYMR,+006.306,+009.721,-000.608,+00.0575,-00.0207,+00.3313,+01.653,-01.304,-10.041,+00.026430,+00.006572,-00.299139*67
"
1667362686.1172123,0,1667362686,114873886,IMU1_Frame,0,0,0,,-0.009765749396969019,0.08438302732962458,0.05145364495492617,0.9950561075930623,"(0.0, 0.0, 0.0, 0.0, 0.0, 0.0, 0.0, 0.0, 0.0)",0.03551,0.009485,-0.299605,"(0.0, 0.0, 0.0, 0.0, 0.0, 0.0, 0.0, 0.0, 0.0)",1.682,-1.248,-10.169,"(0.0, 0.0, 0.0, 0.0, 0.0, 0.0, 0.0, 0.0, 0.0)",0,0,0,,0.0539,-0.0186,0.3411,"(0.0, 0.0, 0.0, 0.0, 0.0, 0.0, 0.0, 0.0, 0.0)",-0.625,9.726,5.867,"$VNYMR,+005.867,+009.726,-000.625,+00.0539,-00.0186,+00.3411,+01.682,-01.248,-10.169,+00.035510,+00.009485,-00.299605*66
"
1667362686.160431,0,1667362686,139264345,IMU1_Frame,0,0,0,,-0.009458040436545452,0.08448847634430894,0.04768548045262261,0.995237829762374,"(0.0, 0.0, 0.0, 0.0, 0.0, 0.0, 0.0, 0.0, 0.0)",0.049205,0.006443,-0.297215,"(0.0, 0.0, 0.0, 0.0, 0.0, 0.0, 0.0, 0.0, 0.0)",1.486,-1.125,-9.776,"(0.0, 0.0, 0.0, 0.0, 0.0, 0.0, 0.0, 0.0, 0.0)",0,0,0,,0.051,-0.0195,0.3332,"(0.0, 0.0, 0.0, 0.0, 0.0, 0.0, 0.0, 0.0, 0.0)",-0.626,9.734,5.433,"$VNYMR,+005.433,+009.734,-000.626,+00.0510,-00.0195,+00.3332,+01.486,-01.125,-09.776,+00.049205,+00.006443,-00.297215*6C
"
1667362686.1646304,0,1667362686,164295911,IMU1_Frame,0,0,0,,-0.009087728525381495,0.08455197219625994,0.04392012405387075,0.9954091620489861,"(0.0, 0.0, 0.0, 0.0, 0.0, 0.0, 0.0, 0.0, 0.0)",0.053112,0.002598,-0.298146,"(0.0, 0.0, 0.0, 0.0, 0.0, 0.0, 0.0, 0.0, 0.0)",1.496,-1.148,-9.612,"(0.0, 0.0, 0.0, 0.0, 0.0, 0.0, 0.0, 0.0, 0.0)",0,0,0,,0.054,-0.0077,0.3399,"(0.0, 0.0, 0.0, 0.0, 0.0, 0.0, 0.0, 0.0, 0.0)",-0.62,9.737,5.0,"$VNYMR,+005.000,+009.737,-000.620,+00.0540,-00.0077,+00.3399,+01.496,-01.148,-09.612,+00.053112,+00.002598,-00.298146*6A
"
1667362686.2070613,0,1667362686,189045906,IMU1_Frame,0,0,0,,-0.008761828325200768,0.08466432898303515,0.04014925935819768,0.9955617603821675,"(0.0, 0.0, 0.0, 0.0, 0.0, 0.0, 0.0, 0.0, 0.0)",0.043768,0.013119,-0.298024,"(0.0, 0.0, 0.0, 0.0, 0.0, 0.0, 0.0, 0.0, 0.0)",1.266,-1.266,-9.641,"(0.0, 0.0, 0.0, 0.0, 0.0, 0.0, 0.0, 0.0, 0.0)",0,0,0,,0.0501,-0.0115,0.3353,"(0.0, 0.0, 0.0, 0.0, 0.0, 0.0, 0.0, 0.0, 0.0)",-0.619,9.746,4.566,"$VNYMR,+004.566,+009.746,-000.619,+00.0501,-00.0115,+00.3353,+01.266,-01.266,-09.641,+00.043768,+00.013119,-00.298024*66
"
1667362686.2503824,0,1667362686,214122533,IMU1_Frame,0,0,0,,-0.00844334496960791,0.0848013264605206,0.036361289334948324,0.9956983989111162,"(0.0, 0.0, 0.0, 0.0, 0.0, 0.0, 0.0, 0.0, 0.0)",0.053676,0.00853,-0.29868,"(0.0, 0.0, 0.0, 0.0, 0.0, 0.0, 0.0, 0.0, 0.0)",1.232,-1.161,-9.678,"(0.0, 0.0, 0.0, 0.0, 0.0, 0.0, 0.0, 0.0, 0.0)",0,0,0,,0.0511,-0.0096,0.332,"(0.0, 0.0, 0.0, 0.0, 0.0, 0.0, 0.0, 0.0, 0.0)",-0.619,9.758,4.13,"$VNYMR,+004.130,+009.758,-000.619,+00.0511,-00.0096,+00.3320,+01.232,-01.161,-09.678,+00.053676,+00.008530,-00.298680*6C
"
1667362686.2504132,0,1667362686,239383220,IMU1_Frame,0,0,0,,-0.008038161676541134,0.08490499360893362,0.03259142977468712,0.995823442545098,"(0.0, 0.0, 0.0, 0.0, 0.0, 0.0, 0.0, 0.0, 0.0)",0.058774,0.005293,-0.297469,"(0.0, 0.0, 0.0, 0.0, 0.0, 0.0, 0.0, 0.0, 0.0)",1.491,-1.146,-9.468,"(0.0, 0.0, 0.0, 0.0, 0.0, 0.0, 0.0, 0.0, 0.0)",0,0,0,,0.0473,-0.0095,0.3318,"(0.0, 0.0, 0.0, 0.0, 0.0, 0.0, 0.0, 0.0, 0.0)",-0.609,9.766,3.697,"$VNYMR,+003.697,+009.766,-000.609,+00.0473,-00.0095,+00.3318,+01.491,-01.146,-09.468,+00.058774,+00.005293,-00.297469*68
"
1667362686.2937126,0,1667362686,263938665,IMU1_Frame,0,0,0,,-0.007550345558581105,0.08502630976519725,0.028865907559136,0.9959318642911502,"(0.0, 0.0, 0.0, 0.0, 0.0, 0.0, 0.0, 0.0, 0.0)",0.065211,0.013953,-0.292759,"(0.0, 0.0, 0.0, 0.0, 0.0, 0.0, 0.0, 0.0, 0.0)",1.468,-1.083,-9.545,"(0.0, 0.0, 0.0, 0.0, 0.0, 0.0, 0.0, 0.0, 0.0)",0,0,0,,0.054,-0.0067,0.3388,"(0.0, 0.0, 0.0, 0.0, 0.0, 0.0, 0.0, 0.0, 0.0)",-0.589,9.776,3.27,"$VNYMR,+003.270,+009.776,-000.589,+00.0540,-00.0067,+00.3388,+01.468,-01.083,-09.545,+00.065211,+00.013953,-00.292759*67
"
1667362686.2937355,0,1667362686,288828611,IMU1_Frame,0,0,0,,-0.007008953985254177,0.08505943697679307,0.025152682111808617,0.996033688851841,"(0.0, 0.0, 0.0, 0.0, 0.0, 0.0, 0.0, 0.0, 0.0)",0.066124,0.008414,-0.29108,"(0.0, 0.0, 0.0, 0.0, 0.0, 0.0, 0.0, 0.0, 0.0)",1.501,-1.189,-9.758,"(0.0, 0.0, 0.0, 0.0, 0.0, 0.0, 0.0, 0.0, 0.0)",0,0,0,,0.0483,-0.0055,0.3374,"(0.0, 0.0, 0.0, 0.0, 0.0, 0.0, 0.0, 0.0, 0.0)",-0.563,9.776,2.845,"$VNYMR,+002.845,+009.776,-000.563,+00.0483,-00.0055,+00.3374,+01.501,-01.189,-09.758,+00.066124,+00.008414,-00.291080*6B
"
1667362686.3373542,0,1667362686,313774347,IMU1_Frame,0,0,0,,-0.006485371266604216,0.08508058971485681,0.021449250299793807,0.9961220622367941,"(0.0, 0.0, 0.0, 0.0, 0.0, 0.0, 0.0, 0.0, 0.0)",0.057457,0.008018,-0.28679,"(0.0, 0.0, 0.0, 0.0, 0.0, 0.0, 0.0, 0.0, 0.0)",1.307,-1.303,-9.586,"(0.0, 0.0, 0.0, 0.0, 0.0, 0.0, 0.0, 0.0, 0.0)",0,0,0,,0.0502,-0.0076,0.3353,"(0.0, 0.0, 0.0, 0.0, 0.0, 0.0, 0.0, 0.0, 0.0)",-0.539,9.775,2.421,"$VNYMR,+002.421,+009.775,-000.539,+00.0502,-00.0076,+00.3353,+01.307,-01.303,-09.586,+00.057457,+00.008018,-00.286790*6F
"
1667362686.3390055,0,1667362686,338685035,IMU1_Frame,0,0,0,,-0.006005641952522293,0.08512433498556092,0.017749304580281927,0.9961941286942623,"(0.0, 0.0, 0.0, 0.0, 0.0, 0.0, 0.0, 0.0, 0.0)",0.055018,0.015435,-0.289218,"(0.0, 0.0, 0.0, 0.0, 0.0, 0.0, 0.0, 0.0, 0.0)",1.461,-1.282,-9.649,"(0.0, 0.0, 0.0, 0.0, 0.0, 0.0, 0.0, 0.0, 0.0)",0,0,0,,0.0474,-0.0005,0.334,"(0.0, 0.0, 0.0, 0.0, 0.0, 0.0, 0.0, 0.0, 0.0)",-0.52,9.777,1.997,"$VNYMR,+001.997,+009.777,-000.520,+00.0474,-00.0005,+00.3340,+01.461,-01.282,-09.649,+00.055018,+00.015435,-00.289218*6F
"
1667362686.3806045,0,1667362686,364788293,IMU1_Frame,0,0,0,,-0.00559815906525323,0.0852167288725306,0.014081311023255522,0.9962472014591619,"(0.0, 0.0, 0.0, 0.0, 0.0, 0.0, 0.0, 0.0, 0.0)",0.045257,0.014498,-0.287129,"(0.0, 0.0, 0.0, 0.0, 0.0, 0.0, 0.0, 0.0, 0.0)",1.253,-1.504,-9.746,"(0.0, 0.0, 0.0, 0.0, 0.0, 0.0, 0.0, 0.0, 0.0)",0,0,0,,0.055,0.0003,0.3443,"(0.0, 0.0, 0.0, 0.0, 0.0, 0.0, 0.0, 0.0, 0.0)",-0.509,9.785,1.576,"$VNYMR,+001.576,+009.785,-000.509,+00.0550,+00.0003,+00.3443,+01.253,-01.504,-09.746,+00.045257,+00.014498,-00.287129*68
"
1667362686.423709,0,1667362686,389371156,IMU1_Frame,0,0,0,,-0.005214927208046591,0.08533317679394621,0.01039809007921163,0.9962845643666133,"(0.0, 0.0, 0.0, 0.0, 0.0, 0.0, 0.0, 0.0, 0.0)",0.047499,0.0121,-0.289938,"(0.0, 0.0, 0.0, 0.0, 0.0, 0.0, 0.0, 0.0, 0.0)",1.374,-1.59,-9.488,"(0.0, 0.0, 0.0, 0.0, 0.0, 0.0, 0.0, 0.0, 0.0)",0,0,0,,0.0493,-0.0016,0.3363,"(0.0, 0.0, 0.0, 0.0, 0.0, 0.0, 0.0, 0.0, 0.0)",-0.501,9.796,1.153,"$VNYMR,+001.153,+009.796,-000.501,+00.0493,-00.0016,+00.3363,+01.374,-01.590,-09.488,+00.047499,+00.012100,-00.289938*62
"
1667362686.4237387,0,1667362686,414745807,IMU1_Frame,0,0,0,,-0.004901476049079988,0.08549091463990004,0.006729597866664542,0.996304166185772,"(0.0, 0.0, 0.0, 0.0, 0.0, 0.0, 0.0, 0.0, 0.0)",0.046057,0.011824,-0.286592,"(0.0, 0.0, 0.0, 0.0, 0.0, 0.0, 0.0, 0.0, 0.0)",1.274,-1.579,-9.718,"(0.0, 0.0, 0.0, 0.0, 0.0, 0.0, 0.0, 0.0, 0.0)",0,0,0,,0.053,0.0013,0.3287,"(0.0, 0.0, 0.0, 0.0, 0.0, 0.0, 0.0, 0.0, 0.0)",-0.501,9.812,0.731,"$VNYMR,+000.731,+009.812,-000.501,+00.0530,+00.0013,+00.3287,+01.274,-01.579,-09.718,+00.046057,+00.011824,-00.286592*66
"
1667362686.467525,0,1667362686,439207315,IMU1_Frame,0,0,0,,-0.00462245893084689,0.0856473503151337,0.003072786337206508,0.9963100532673328,"(0.0, 0.0, 0.0, 0.0, 0.0, 0.0, 0.0, 0.0, 0.0)",0.048386,0.008065,-0.289826,"(0.0, 0.0, 0.0, 0.0, 0.0, 0.0, 0.0, 0.0, 0.0)",1.446,-1.604,-9.662,"(0.0, 0.0, 0.0, 0.0, 0.0, 0.0, 0.0, 0.0, 0.0)",0,0,0,,0.0493,0.0024,0.3296,"(0.0, 0.0, 0.0, 0.0, 0.0, 0.0, 0.0, 0.0, 0.0)",-0.505,9.828,0.31,"$VNYMR,+000.310,+009.828,-000.505,+00.0493,+00.0024,+00.3296,+01.446,-01.604,-09.662,+00.048386,+00.008065,-00.289826*6B
"
1667362686.4675505,0,1667362686,464170694,IMU1_Frame,0,0,0,,-0.004367727005094729,0.08577685628815895,-0.000590534740224805,0.99630462467804,"(0.0, 0.0, 0.0, 0.0, 0.0, 0.0, 0.0, 0.0, 0.0)",0.051364,0.011398,-0.29329,"(0.0, 0.0, 0.0, 0.0, 0.0, 0.0, 0.0, 0.0, 0.0)",1.732,-1.625,-9.816,"(0.0, 0.0, 0.0, 0.0, 0.0, 0.0, 0.0, 0.0, 0.0)",0,0,0,,0.0521,0.0053,0.3231,"(0.0, 0.0, 0.0, 0.0, 0.0, 0.0, 0.0, 0.0, 0.0)",-0.512,9.841,-0.112,"$VNYMR,-000.112,+009.841,-000.512,+00.0521,+00.0053,+00.3231,+01.732,-01.625,-09.816,+00.051364,+00.011398,-00.293290*6E
"
1667362686.5104132,0,1667362686,489054918,IMU1_Frame,0,0,0,,-0.0041232635208206525,0.08586210271716574,-0.004227142620703371,0.9962895308494358,"(0.0, 0.0, 0.0, 0.0, 0.0, 0.0, 0.0, 0.0, 0.0)",0.041367,0.0137,-0.290635,"(0.0, 0.0, 0.0, 0.0, 0.0, 0.0, 0.0, 0.0, 0.0)",1.406,-1.406,-9.813,"(0.0, 0.0, 0.0, 0.0, 0.0, 0.0, 0.0, 0.0, 0.0)",0,0,0,,0.0436,-0.0034,0.3294,"(0.0, 0.0, 0.0, 0.0, 0.0, 0.0, 0.0, 0.0, 0.0)",-0.52,9.849,-0.531,"$VNYMR,-000.531,+009.849,-000.520,+00.0436,-00.0034,+00.3294,+01.406,-01.406,-09.813,+00.041367,+00.013700,-00.290635*62
"
1667362686.5143497,0,1667362686,514017343,IMU1_Frame,0,0,0,,-0.0038229174291364645,0.08596381595140001,-0.007902822846005858,0.9962595811536612,"(0.0, 0.0, 0.0, 0.0, 0.0, 0.0, 0.0, 0.0, 0.0)",0.036977,0.018576,-0.288016,"(0.0, 0.0, 0.0, 0.0, 0.0, 0.0, 0.0, 0.0, 0.0)",1.603,-1.511,-10.242,"(0.0, 0.0, 0.0, 0.0, 0.0, 0.0, 0.0, 0.0, 0.0)",0,0,0,,0.0474,-0.0005,0.3329,"(0.0, 0.0, 0.0, 0.0, 0.0, 0.0, 0.0, 0.0, 0.0)",-0.522,9.859,-0.954,"$VNYMR,-000.954,+009.859,-000.522,+00.0474,-00.0005,+00.3329,+01.603,-01.511,-10.242,+00.036977,+00.018576,-00.288016*66
"
1667362686.5570896,0,1667362686,538892507,IMU1_Frame,0,0,0,,-0.0035668463243620605,0.086064922781285,-0.011557193929344057,0.9962161100596745,"(0.0, 0.0, 0.0, 0.0, 0.0, 0.0, 0.0, 0.0, 0.0)",0.045481,0.01066,-0.28978,"(0.0, 0.0, 0.0, 0.0, 0.0, 0.0, 0.0, 0.0, 0.0)",1.159,-1.8,-9.7,"(0.0, 0.0, 0.0, 0.0, 0.0, 0.0, 0.0, 0.0, 0.0)",0,0,0,,0.0428,0.0076,0.3348,"(0.0, 0.0, 0.0, 0.0, 0.0, 0.0, 0.0, 0.0, 0.0)",-0.529,9.869,-1.375,"$VNYMR,-001.375,+009.869,-000.529,+00.0428,+00.0076,+00.3348,+01.159,-01.800,-09.700,+00.045481,+00.010660,-00.289780*61
"
1667362686.600603,0,1667362686,563847541,IMU1_Frame,0,0,0,,-0.003413507801763547,0.08617562139149598,-0.015210958025599032,0.9961579879708943,"(0.0, 0.0, 0.0, 0.0, 0.0, 0.0, 0.0, 0.0, 0.0)",0.043267,0.00498,-0.295209,"(0.0, 0.0, 0.0, 0.0, 0.0, 0.0, 0.0, 0.0, 0.0)",1.275,-1.461,-9.884,"(0.0, 0.0, 0.0, 0.0, 0.0, 0.0, 0.0, 0.0, 0.0)",0,0,0,,0.0409,0.0047,0.3414,"(0.0, 0.0, 0.0, 0.0, 0.0, 0.0, 0.0, 0.0, 0.0)",-0.548,9.88,-1.797,"$VNYMR,-001.797,+009.880,-000.548,+00.0409,+00.0047,+00.3414,+01.275,-01.461,-09.884,+00.043267,+00.004980,-00.295209*66
"
1667362686.600636,0,1667362686,588777065,IMU1_Frame,0,0,0,,-0.0032922528802781376,0.0862697130741897,-0.018887599871706694,0.9960873236057949,"(0.0, 0.0, 0.0, 0.0, 0.0, 0.0, 0.0, 0.0, 0.0)",0.030683,0.004628,-0.288196,"(0.0, 0.0, 0.0, 0.0, 0.0, 0.0, 0.0, 0.0, 0.0)",1.522,-1.179,-9.636,"(0.0, 0.0, 0.0, 0.0, 0.0, 0.0, 0.0, 0.0, 0.0)",0,0,0,,0.0408,0.0007,0.3326,"(0.0, 0.0, 0.0, 0.0, 0.0, 0.0, 0.0, 0.0, 0.0)",-0.571,9.889,-2.222,"$VNYMR,-002.222,+009.889,-000.571,+00.0408,+00.0007,+00.3326,+01.522,-01.179,-09.636,+00.030683,+00.004628,-00.288196*6E
"
1667362686.6440094,0,1667362686,613707780,IMU1_Frame,0,0,0,,-0.0031037461017338107,0.0863016144357378,-0.022552973059174128,0.9960089163818331,"(0.0, 0.0, 0.0, 0.0, 0.0, 0.0, 0.0, 0.0, 0.0)",0.041615,0.003404,-0.293999,"(0.0, 0.0, 0.0, 0.0, 0.0, 0.0, 0.0, 0.0, 0.0)",1.633,-0.979,-9.42,"(0.0, 0.0, 0.0, 0.0, 0.0, 0.0, 0.0, 0.0, 0.0)",0,0,0,,0.0456,0.0055,0.336,"(0.0, 0.0, 0.0, 0.0, 0.0, 0.0, 0.0, 0.0, 0.0)",-0.586,9.891,-2.645,"$VNYMR,-002.645,+009.891,-000.586,+00.0456,+00.0055,+00.3360,+01.633,-00.979,-09.420,+00.041615,+00.003404,-00.293999*64
"
1667362686.644032,0,1667362686,639485836,IMU1_Frame,0,0,0,,-0.0028061709023433075,0.08623467463265935,-0.026211143758362497,0.9959260425547394,"(0.0, 0.0, 0.0, 0.0, 0.0, 0.0, 0.0, 0.0, 0.0)",0.04817,-0.004225,-0.287522,"(0.0, 0.0, 0.0, 0.0, 0.0, 0.0, 0.0, 0.0, 0.0)",1.998,-1.059,-9.495,"(0.0, 0.0, 0.0, 0.0, 0.0, 0.0, 0.0, 0.0, 0.0)",0,0,0,,0.0381,0.0127,0.3334,"(0.0, 0.0, 0.0, 0.0, 0.0, 0.0, 0.0, 0.0, 0.0)",-0.588,9.882,-3.066,"$VNYMR,-003.066,+009.882,-000.588,+00.0381,+00.0127,+00.3334,+01.998,-01.059,-09.495,+00.048170,-00.004225,-00.287522*6C
"
1667362686.687083,0,1667362686,664373397,IMU1_Frame,0,0,0,,-0.002371211912210509,0.08610173268253601,-0.029890198215672917,0.9958350491089174,"(0.0, 0.0, 0.0, 0.0, 0.0, 0.0, 0.0, 0.0, 0.0)",0.069779,-0.013913,-0.297509,"(0.0, 0.0, 0.0, 0.0, 0.0, 0.0, 0.0, 0.0, 0.0)",1.94,-1.116,-9.428,"(0.0, 0.0, 0.0, 0.0, 0.0, 0.0, 0.0, 0.0, 0.0)",0,0,0,,0.04,0.0087,0.3358,"(0.0, 0.0, 0.0, 0.0, 0.0, 0.0, 0.0, 0.0, 0.0)",-0.574,9.866,-3.488,"$VNYMR,-003.488,+009.866,-000.574,+00.0400,+00.0087,+00.3358,+01.940,-01.116,-09.428,+00.069779,-00.013913,-00.297509*6B
"
1667362686.6896548,0,1667362686,689297199,IMU1_Frame,0,0,0,,-0.0017853599689942271,0.08587455833775666,-0.033565693414177325,0.9957387794726597,"(0.0, 0.0, 0.0, 0.0, 0.0, 0.0, 0.0, 0.0, 0.0)",0.072833,-0.018001,-0.286546,"(0.0, 0.0, 0.0, 0.0, 0.0, 0.0, 0.0, 0.0, 0.0)",1.574,-0.71,-9.429,"(0.0, 0.0, 0.0, 0.0, 0.0, 0.0, 0.0, 0.0, 0.0)",0,0,0,,0.0429,0.0175,0.3336,"(0.0, 0.0, 0.0, 0.0, 0.0, 0.0, 0.0, 0.0, 0.0)",-0.542,9.84,-3.908,"$VNYMR,-003.908,+009.840,-000.542,+00.0429,+00.0175,+00.3336,+01.574,-00.710,-09.429,+00.072833,-00.018001,-00.286546*6A
"
1667362686.7340777,0,1667362686,714553833,IMU1_Frame,0,0,0,,-0.0011055401479955662,0.08562329505186997,-0.03725779476363756,0.9956300948920699,"(0.0, 0.0, 0.0, 0.0, 0.0, 0.0, 0.0, 0.0, 0.0)",0.083342,-0.019333,-0.292466,"(0.0, 0.0, 0.0, 0.0, 0.0, 0.0, 0.0, 0.0, 0.0)",1.591,-1.389,-9.653,"(0.0, 0.0, 0.0, 0.0, 0.0, 0.0, 0.0, 0.0, 0.0)",0,0,0,,0.0372,0.0147,0.3367,"(0.0, 0.0, 0.0, 0.0, 0.0, 0.0, 0.0, 0.0, 0.0)",-0.499,9.812,-4.329,"$VNYMR,-004.329,+009.812,-000.499,+00.0372,+00.0147,+00.3367,+01.591,-01.389,-09.653,+00.083342,-00.019333,-00.292466*6F
"
1667362686.7771406,0,1667362686,739142894,IMU1_Frame,0,0,0,,-0.00038159992249132794,0.08542720393882339,-0.04095262893218305,0.9955023502695696,"(0.0, 0.0, 0.0, 0.0, 0.0, 0.0, 0.0, 0.0, 0.0)",0.083276,-0.012714,-0.290442,"(0.0, 0.0, 0.0, 0.0, 0.0, 0.0, 0.0, 0.0, 0.0)",1.272,-0.987,-9.53,"(0.0, 0.0, 0.0, 0.0, 0.0, 0.0, 0.0, 0.0, 0.0)",0,0,0,,0.0453,0.0144,0.2773,"(0.0, 0.0, 0.0, 0.0, 0.0, 0.0, 0.0, 0.0, 0.0)",-0.451,9.791,-4.75,"$VNYMR,-004.750,+009.791,-000.451,+00.0453,+00.0144,+00.2773,+01.272,-00.987,-09.530,+00.083276,-00.012714,-00.290442*63
"
1667362686.7771564,0,1667362686,764515638,IMU1_Frame,0,0,0,,0.0003412409191339569,0.08521824389799051,-0.04465561494715778,0.9953610453073141,"(0.0, 0.0, 0.0, 0.0, 0.0, 0.0, 0.0, 0.0, 0.0)",0.078971,-0.014055,-0.290671,"(0.0, 0.0, 0.0, 0.0, 0.0, 0.0, 0.0, 0.0, 0.0)",1.49,-1.213,-9.827,"(0.0, 0.0, 0.0, 0.0, 0.0, 0.0, 0.0, 0.0, 0.0)",0,0,0,,0.0464,0.0154,0.3017,"(0.0, 0.0, 0.0, 0.0, 0.0, 0.0, 0.0, 0.0, 0.0)",-0.403,9.769,-5.172,"$VNYMR,-005.172,+009.769,-000.403,+00.0464,+00.0154,+00.3017,+01.490,-01.213,-09.827,+00.078971,-00.014055,-00.290671*6D
"
1667362686.8204348,0,1667362686,789120912,IMU1_Frame,0,0,0,,0.0009939203260287501,0.08502584697105536,-0.04835188280475597,0.9952043573550486,"(0.0, 0.0, 0.0, 0.0, 0.0, 0.0, 0.0, 0.0, 0.0)",0.07363,-0.011462,-0.292236,"(0.0, 0.0, 0.0, 0.0, 0.0, 0.0, 0.0, 0.0, 0.0)",1.328,-1.229,-9.816,"(0.0, 0.0, 0.0, 0.0, 0.0, 0.0, 0.0, 0.0, 0.0)",0,0,0,,0.0485,0.0233,0.3161,"(0.0, 0.0, 0.0, 0.0, 0.0, 0.0, 0.0, 0.0, 0.0)",-0.363,9.749,-5.594,"$VNYMR,-005.594,+009.749,-000.363,+00.0485,+00.0233,+00.3161,+01.328,-01.229,-09.816,+00.073630,-00.011462,-00.292236*61
"
1667362686.8204665,0,1667362686,813995122,IMU1_Frame,0,0,0,,0.001557161069870769,0.08482565948843677,-0.05203145039843218,0.995035130490974,"(0.0, 0.0, 0.0, 0.0, 0.0, 0.0, 0.0, 0.0, 0.0)",0.05448,-0.010621,-0.288043,"(0.0, 0.0, 0.0, 0.0, 0.0, 0.0, 0.0, 0.0, 0.0)",1.455,-1.401,-9.859,"(0.0, 0.0, 0.0, 0.0, 0.0, 0.0, 0.0, 0.0, 0.0)",0,0,0,,0.0428,0.0145,0.3203,"(0.0, 0.0, 0.0, 0.0, 0.0, 0.0, 0.0, 0.0, 0.0)",-0.333,9.728,-6.015,"$VNYMR,-006.015,+009.728,-000.333,+00.0428,+00.0145,+00.3203,+01.455,-01.401,-09.859,+00.054480,-00.010621,-00.288043*67
"
1667362686.8637514,0,1667362686,838821887,IMU1_Frame,0,0,0,,0.002028204672591631,0.08458396347313203,-0.055685903029526494,0.994857034810916,"(0.0, 0.0, 0.0, 0.0, 0.0, 0.0, 0.0, 0.0, 0.0)",0.057462,-0.016732,-0.289623,"(0.0, 0.0, 0.0, 0.0, 0.0, 0.0, 0.0, 0.0, 0.0)",1.392,-1.52,-9.936,"(0.0, 0.0, 0.0, 0.0, 0.0, 0.0, 0.0, 0.0, 0.0)",0,0,0,,0.039,0.0196,0.3135,"(0.0, 0.0, 0.0, 0.0, 0.0, 0.0, 0.0, 0.0, 0.0)",-0.313,9.702,-6.434,"$VNYMR,-006.434,+009.702,-000.313,+00.0390,+00.0196,+00.3135,+01.392,-01.520,-09.936,+00.057462,-00.016732,-00.289623*6B
"
1667362686.864152,0,1667362686,863786935,IMU1_Frame,0,0,0,,0.002423218910641362,0.08436162403165136,-0.05926420248000149,0.9946682857642856,"(0.0, 0.0, 0.0, 0.0, 0.0, 0.0, 0.0, 0.0, 0.0)",0.051927,-0.014359,-0.27757,"(0.0, 0.0, 0.0, 0.0, 0.0, 0.0, 0.0, 0.0, 0.0)",1.537,-1.307,-9.758,"(0.0, 0.0, 0.0, 0.0, 0.0, 0.0, 0.0, 0.0, 0.0)",0,0,0,,0.0446,0.0154,0.306,"(0.0, 0.0, 0.0, 0.0, 0.0, 0.0, 0.0, 0.0, 0.0)",-0.301,9.678,-6.845,"$VNYMR,-006.845,+009.678,-000.301,+00.0446,+00.0154,+00.3060,+01.537,-01.307,-09.758,+00.051927,-00.014359,-00.277570*64
"
1667362686.907082,0,1667362686,888716220,IMU1_Frame,0,0,0,,0.0028432583322015362,0.08417935670809062,-0.06281764413116744,0.9944645269551239,"(0.0, 0.0, 0.0, 0.0, 0.0, 0.0, 0.0, 0.0, 0.0)",0.056351,-0.003272,-0.275002,"(0.0, 0.0, 0.0, 0.0, 0.0, 0.0, 0.0, 0.0, 0.0)",1.389,-1.268,-10.07,"(0.0, 0.0, 0.0, 0.0, 0.0, 0.0, 0.0, 0.0, 0.0)",0,0,0,,0.0409,0.0215,0.3124,"(0.0, 0.0, 0.0, 0.0, 0.0, 0.0, 0.0, 0.0, 0.0)",-0.286,9.659,-7.253,"$VNYMR,-007.253,+009.659,-000.286,+00.0409,+00.0215,+00.3124,+01.389,-01.268,-10.070,+00.056351,-00.003272,-00.275002*67
"
1667362686.9505796,0,1667362686,914481639,IMU1_Frame,0,0,0,,0.003308247825087841,0.08394842492685463,-0.06634037695285844,0.994253826663182,"(0.0, 0.0, 0.0, 0.0, 0.0, 0.0, 0.0, 0.0, 0.0)",0.061007,-0.011603,-0.27751,"(0.0, 0.0, 0.0, 0.0, 0.0, 0.0, 0.0, 0.0, 0.0)",1.374,-1.341,-9.956,"(0.0, 0.0, 0.0, 0.0, 0.0, 0.0, 0.0, 0.0, 0.0)",0,0,0,,0.0418,0.0205,0.3091,"(0.0, 0.0, 0.0, 0.0, 0.0, 0.0, 0.0, 0.0, 0.0)",-0.265,9.635,-7.657,"$VNYMR,-007.657,+009.635,-000.265,+00.0418,+00.0205,+00.3091,+01.374,-01.341,-09.956,+00.061007,-00.011603,-00.277510*62
"
1667362686.9506066,0,1667362686,939431905,IMU1_Frame,0,0,0,,0.00389787504813646,0.08378482330364574,-0.06986325633690109,0.9940241623663333,"(0.0, 0.0, 0.0, 0.0, 0.0, 0.0, 0.0, 0.0, 0.0)",0.070403,-0.006496,-0.275466,"(0.0, 0.0, 0.0, 0.0, 0.0, 0.0, 0.0, 0.0, 0.0)",0.803,-1.599,-9.79,"(0.0, 0.0, 0.0, 0.0, 0.0, 0.0, 0.0, 0.0, 0.0)",0,0,0,,0.0352,0.0177,0.3166,"(0.0, 0.0, 0.0, 0.0, 0.0, 0.0, 0.0, 0.0, 0.0)",-0.23,9.62,-8.06,"$VNYMR,-008.060,+009.620,-000.230,+00.0352,+00.0177,+00.3166,+00.803,-01.599,-09.790,+00.070403,-00.006496,-00.275466*6A
"
1667362686.993841,0,1667362686,964309215,IMU1_Frame,0,0,0,,0.004533058349880147,0.08364955178553533,-0.07339730056915336,0.9937781644498117,"(0.0, 0.0, 0.0, 0.0, 0.0, 0.0, 0.0, 0.0, 0.0)",0.082723,-0.0064,-0.285224,"(0.0, 0.0, 0.0, 0.0, 0.0, 0.0, 0.0, 0.0, 0.0)",1.272,-1.887,-9.851,"(0.0, 0.0, 0.0, 0.0, 0.0, 0.0, 0.0, 0.0, 0.0)",0,0,0,,0.0361,0.0177,0.3089,"(0.0, 0.0, 0.0, 0.0, 0.0, 0.0, 0.0, 0.0, 0.0)",-0.19,9.609,-8.464,"$VNYMR,-008.464,+009.609,-000.190,+00.0361,+00.0177,+00.3089,+01.272,-01.887,-09.851,+00.082723,-00.006400,-00.285224*69
"
1667362686.9938672,0,1667362686,989151239,IMU1_Frame,0,0,0,,0.005121820769176909,0.08352317345020752,-0.07699532113649486,0.993513647098973,"(0.0, 0.0, 0.0, 0.0, 0.0, 0.0, 0.0, 0.0, 0.0)",0.077777,-0.014107,-0.289144,"(0.0, 0.0, 0.0, 0.0, 0.0, 0.0, 0.0, 0.0, 0.0)",1.551,-1.662,-9.765,"(0.0, 0.0, 0.0, 0.0, 0.0, 0.0, 0.0, 0.0, 0.0)",0,0,0,,0.0333,0.0178,0.3032,"(0.0, 0.0, 0.0, 0.0, 0.0, 0.0, 0.0, 0.0, 0.0)",-0.156,9.599,-8.876,"$VNYMR,-008.876,+009.599,-000.156,+00.0333,+00.0178,+00.3032,+01.551,-01.662,-09.765,+00.077777,-00.014107,-00.289144*66
"
1667362687.0370882,0,1667362687,14174461,IMU1_Frame,0,0,0,,0.005609449580721259,0.0833669646473339,-0.08066188085524999,0.9932331771833768,"(0.0, 0.0, 0.0, 0.0, 0.0, 0.0, 0.0, 0.0, 0.0)",0.062337,-0.020005,-0.29566,"(0.0, 0.0, 0.0, 0.0, 0.0, 0.0, 0.0, 0.0, 0.0)",1.727,-1.751,-9.675,"(0.0, 0.0, 0.0, 0.0, 0.0, 0.0, 0.0, 0.0, 0.0)",0,0,0,,0.0325,0.0268,0.3153,"(0.0, 0.0, 0.0, 0.0, 0.0, 0.0, 0.0, 0.0, 0.0)",-0.134,9.585,-9.297,"$VNYMR,-009.297,+009.585,-000.134,+00.0325,+00.0268,+00.3153,+01.727,-01.751,-09.675,+00.062337,-00.020005,-00.295660*66
"
1667362687.03944,0,1667362687,39089679,IMU1_Frame,0,0,0,,0.005874294000692044,0.08319230775094236,-0.08438675996603762,0.9929367589849317,"(0.0, 0.0, 0.0, 0.0, 0.0, 0.0, 0.0, 0.0, 0.0)",0.033065,-0.017683,-0.298166,"(0.0, 0.0, 0.0, 0.0, 0.0, 0.0, 0.0, 0.0, 0.0)",1.652,-2.208,-9.271,"(0.0, 0.0, 0.0, 0.0, 0.0, 0.0, 0.0, 0.0, 0.0)",0,0,0,,0.0363,0.0257,0.3188,"(0.0, 0.0, 0.0, 0.0, 0.0, 0.0, 0.0, 0.0, 0.0)",-0.138,9.567,-9.727,"$VNYMR,-009.727,+009.567,-000.138,+00.0363,+00.0257,+00.3188,+01.652,-02.208,-09.271,+00.033065,-00.017683,-00.298166*69
"
1667362687.0804,0,1667362687,64383745,IMU1_Frame,0,0,0,,0.005888401113042769,0.08295184392150531,-0.08820292900102175,0.9926250861417893,"(0.0, 0.0, 0.0, 0.0, 0.0, 0.0, 0.0, 0.0, 0.0)",0.013506,-0.017396,-0.310183,"(0.0, 0.0, 0.0, 0.0, 0.0, 0.0, 0.0, 0.0, 0.0)",1.353,-2.317,-8.604,"(0.0, 0.0, 0.0, 0.0, 0.0, 0.0, 0.0, 0.0, 0.0)",0,0,0,,0.0288,0.0319,0.3195,"(0.0, 0.0, 0.0, 0.0, 0.0, 0.0, 0.0, 0.0, 0.0)",-0.171,9.539,-10.17,"$VNYMR,-010.170,+009.539,-000.171,+00.0288,+00.0319,+00.3195,+01.353,-02.317,-08.604,+00.013506,-00.017396,-00.310183*65
"
1667362687.1239223,0,1667362687,88904619,IMU1_Frame,0,0,0,,0.005874962449706908,0.08251423266606885,-0.09213976122583764,0.9923039608028328,"(0.0, 0.0, 0.0, 0.0, 0.0, 0.0, 0.0, 0.0, 0.0)",0.035748,-0.033279,-0.319982,"(0.0, 0.0, 0.0, 0.0, 0.0, 0.0, 0.0, 0.0, 0.0)",0.287,-1.678,-9.496,"(0.0, 0.0, 0.0, 0.0, 0.0, 0.0, 0.0, 0.0, 0.0)",0,0,0,,0.0344,0.0277,0.3242,"(0.0, 0.0, 0.0, 0.0, 0.0, 0.0, 0.0, 0.0, 0.0)",-0.206,9.488,-10.627,"$VNYMR,-010.627,+009.488,-000.206,+00.0344,+00.0277,+00.3242,+00.287,-01.678,-09.496,+00.035748,-00.033279,-00.319982*6D
"
1667362687.1239536,0,1667362687,113877058,IMU1_Frame,0,0,0,,0.00597154060149741,0.08218039421581179,-0.09596267090343799,0.9919686937108736,"(0.0, 0.0, 0.0, 0.0, 0.0, 0.0, 0.0, 0.0, 0.0)",0.034033,-0.019385,-0.292709,"(0.0, 0.0, 0.0, 0.0, 0.0, 0.0, 0.0, 0.0, 0.0)",1.271,-0.836,-9.199,"(0.0, 0.0, 0.0, 0.0, 0.0, 0.0, 0.0, 0.0, 0.0)",0,0,0,,0.0382,0.0276,0.32,"(0.0, 0.0, 0.0, 0.0, 0.0, 0.0, 0.0, 0.0, 0.0)",-0.228,9.45,-11.07,"$VNYMR,-011.070,+009.450,-000.228,+00.0382,+00.0276,+00.3200,+01.271,-00.836,-09.199,+00.034033,-00.019385,-00.292709*64
"
1667362687.167163,0,1667362687,138741731,IMU1_Frame,0,0,0,,0.0064581999314426985,0.08182503826861816,-0.0998337430910757,0.9916129176782691,"(0.0, 0.0, 0.0, 0.0, 0.0, 0.0, 0.0, 0.0, 0.0)",0.07964,-0.016556,-0.30622,"(0.0, 0.0, 0.0, 0.0, 0.0, 0.0, 0.0, 0.0, 0.0)",0.915,-1.0,-9.807,"(0.0, 0.0, 0.0, 0.0, 0.0, 0.0, 0.0, 0.0, 0.0)",0,0,0,,0.0325,0.0258,0.3142,"(0.0, 0.0, 0.0, 0.0, 0.0, 0.0, 0.0, 0.0, 0.0)",-0.205,9.414,-11.515,"$VNYMR,-011.515,+009.414,-000.205,+00.0325,+00.0258,+00.3142,+00.915,-01.000,-09.807,+00.079640,-00.016556,-00.306220*6D
"
1667362687.167191,0,1667362687,163724899,IMU1_Frame,0,0,0,,0.0072428153564001955,0.08163672078083253,-0.10365564521011203,0.9912307978780426,"(0.0, 0.0, 0.0, 0.0, 0.0, 0.0, 0.0, 0.0, 0.0)",0.089535,0.006866,-0.299353,"(0.0, 0.0, 0.0, 0.0, 0.0, 0.0, 0.0, 0.0, 0.0)",0.918,-1.351,-9.674,"(0.0, 0.0, 0.0, 0.0, 0.0, 0.0, 0.0, 0.0, 0.0)",0,0,0,,0.0297,0.0328,0.3118,"(0.0, 0.0, 0.0, 0.0, 0.0, 0.0, 0.0, 0.0, 0.0)",-0.149,9.401,-11.952,"$VNYMR,-011.952,+009.401,-000.149,+00.0297,+00.0328,+00.3118,+00.918,-01.351,-09.674,+00.089535,+00.006866,-00.299353*69
"
1667362687.210405,0,1667362687,189429998,IMU1_Frame,0,0,0,,0.0079845386915337,0.08154432839886233,-0.10747075243744166,0.9908263253559586,"(0.0, 0.0, 0.0, 0.0, 0.0, 0.0, 0.0, 0.0, 0.0)",0.071628,0.007083,-0.300743,"(0.0, 0.0, 0.0, 0.0, 0.0, 0.0, 0.0, 0.0, 0.0)",1.407,-1.47,-10.665,"(0.0, 0.0, 0.0, 0.0, 0.0, 0.0, 0.0, 0.0, 0.0)",0,0,0,,0.0316,0.0338,0.3196,"(0.0, 0.0, 0.0, 0.0, 0.0, 0.0, 0.0, 0.0, 0.0)",-0.099,9.399,-12.389,"$VNYMR,-012.389,+009.399,-000.099,+00.0316,+00.0338,+00.3196,+01.407,-01.470,-10.665,+00.071628,+00.007083,-00.300743*63
"
1667362687.2147622,0,1667362687,214417934,IMU1_Frame,0,0,0,,0.008554101729485016,0.08158929172985725,-0.1113279127655984,0.9903918975122308,"(0.0, 0.0, 0.0, 0.0, 0.0, 0.0, 0.0, 0.0, 0.0)",0.05266,0.012827,-0.303706,"(0.0, 0.0, 0.0, 0.0, 0.0, 0.0, 0.0, 0.0, 0.0)",1.075,-1.554,-9.928,"(0.0, 0.0, 0.0, 0.0, 0.0, 0.0, 0.0, 0.0, 0.0)",0,0,0,,0.0325,0.0337,0.3141,"(0.0, 0.0, 0.0, 0.0, 0.0, 0.0, 0.0, 0.0, 0.0)",-0.071,9.411,-12.833,"$VNYMR,-012.833,+009.411,-000.071,+00.0325,+00.0337,+00.3141,+01.075,-01.554,-09.928,+00.052660,+00.012827,-00.303706*68
"
1667362687.2570403,0,1667362687,239292621,IMU1_Frame,0,0,0,,0.008910833153313901,0.08171719631651964,-0.11521605408216291,0.9899334107708545,"(0.0, 0.0, 0.0, 0.0, 0.0, 0.0, 0.0, 0.0, 0.0)",0.044815,0.01444,-0.308374,"(0.0, 0.0, 0.0, 0.0, 0.0, 0.0, 0.0, 0.0, 0.0)",1.242,-1.531,-10.019,"(0.0, 0.0, 0.0, 0.0, 0.0, 0.0, 0.0, 0.0, 0.0)",0,0,0,,0.025,0.036,0.3182,"(0.0, 0.0, 0.0, 0.0, 0.0, 0.0, 0.0, 0.0, 0.0)",-0.069,9.43,-13.283,"$VNYMR,-013.283,+009.430,-000.069,+00.0250,+00.0360,+00.3182,+01.242,-01.531,-10.019,+00.044815,+00.014440,-00.308374*60
"
1667362687.3006618,0,1667362687,264235258,IMU1_Frame,0,0,0,,0.009072821250875286,0.0818233235102021,-0.11907842703531633,0.9894659953020565,"(0.0, 0.0, 0.0, 0.0, 0.0, 0.0, 0.0, 0.0, 0.0)",0.043895,0.001935,-0.313933,"(0.0, 0.0, 0.0, 0.0, 0.0, 0.0, 0.0, 0.0, 0.0)",1.051,-1.906,-9.97,"(0.0, 0.0, 0.0, 0.0, 0.0, 0.0, 0.0, 0.0, 0.0)",0,0,0,,0.027,0.0389,0.3194,"(0.0, 0.0, 0.0, 0.0, 0.0, 0.0, 0.0, 0.0, 0.0)",-0.089,9.444,-13.732,"$VNYMR,-013.732,+009.444,-000.089,+00.0270,+00.0389,+00.3194,+01.051,-01.906,-09.970,+00.043895,+00.001935,-00.313933*61
"
1667362687.3006887,0,1667362687,289160728,IMU1_Frame,0,0,0,,0.00920094326803831,0.08187239610339038,-0.12292013283811407,0.9889908464401116,"(0.0, 0.0, 0.0, 0.0, 0.0, 0.0, 0.0, 0.0, 0.0)",0.048161,-0.012784,-0.311112,"(0.0, 0.0, 0.0, 0.0, 0.0, 0.0, 0.0, 0.0, 0.0)",1.414,-1.411,-9.217,"(0.0, 0.0, 0.0, 0.0, 0.0, 0.0, 0.0, 0.0, 0.0)",0,0,0,,0.0298,0.0378,0.3184,"(0.0, 0.0, 0.0, 0.0, 0.0, 0.0, 0.0, 0.0, 0.0)",-0.112,9.451,-14.179,"$VNYMR,-014.179,+009.451,-000.112,+00.0298,+00.0378,+00.3184,+01.414,-01.411,-09.217,+00.048161,-00.012784,-00.311112*65
"
1667362687.343787,0,1667362687,314091682,IMU1_Frame,0,0,0,,0.009511453675200501,0.08178437421576927,-0.12675177446494812,0.9885114243412195,"(0.0, 0.0, 0.0, 0.0, 0.0, 0.0, 0.0, 0.0, 0.0)",0.05983,-0.008924,-0.30089,"(0.0, 0.0, 0.0, 0.0, 0.0, 0.0, 0.0, 0.0, 0.0)",1.157,-1.088,-9.659,"(0.0, 0.0, 0.0, 0.0, 0.0, 0.0, 0.0, 0.0, 0.0)",0,0,0,,0.024,0.033,0.3093,"(0.0, 0.0, 0.0, 0.0, 0.0, 0.0, 0.0, 0.0, 0.0)",-0.112,9.445,-14.623,"$VNYMR,-014.623,+009.445,-000.112,+00.0240,+00.0330,+00.3093,+01.157,-01.088,-09.659,+00.059830,-00.008924,-00.300890*6F
"
